#timestamp [ns],w_RS_S_x [rad s^-1],w_RS_S_y [rad s^-1],w_RS_S_z [rad s^-1],a_RS_S_x [m s^-2],a_RS_S_y [m s^-2],a_RS_S_z [m s^-2]
1680262346588240400,0.000146552,-0.000308163,-0.000106311,0.16741,0.410381,-9.79862
1680262346921257900,0.000106794,0.000121125,-3.57675e-05,0.158854,0.418562,-9.79696
1680262347253749900,-0.000269222,-0.000169684,7.94747e-05,0.166442,0.420076,-9.78961
1680262347587693300,0.000158893,5.39782e-05,8.5116e-05,0.166279,0.422107,-9.80081
1680262347920611700,6.4131e-05,0.000317921,0.000155044,0.167426,0.426517,-9.802
1680262348254447500,-5.787e-05,0.000204291,0.000252967,0.160454,0.419485,-9.80013
1680262348587683400,-0.000217033,0.000213377,-8.81924e-05,0.165921,0.419041,-9.79748
1680262348920762900,-7.08004e-05,-5.78163e-05,-3.68666e-05,0.166147,0.419214,-9.79124
1680262349254371900,0.000216064,0.000286558,-0.000175025,0.170801,0.428514,-9.80471
1680262349587681700,2.21344e-05,-0.000109623,0.000417815,0.167405,0.424613,-9.79846
1680262349920530600,-6.20921e-05,8.48684e-05,-0.000128186,0.164308,0.421843,-9.79676
1680262350253823100,-0.000129304,-2.55874e-06,-1.90056e-05,0.155941,0.427314,-9.79034
1680262350587745200,-1.49851e-05,0.000232374,7.62406e-05,0.162063,0.418769,-9.79291
1680262350920468200,0.000407942,-6.64907e-05,7.36255e-06,0.166433,0.423573,-9.7958
1680262351254275600,2.01937e-05,4.71847e-05,3.15301e-05,0.168894,0.416494,-9.80113
1680262351582014400,-4.44804e-05,-0.000107821,0.00016287,0.160553,0.426312,-9.78995
1680262351590040300,9.94577e-05,0.000160204,0.000436737,0.158108,0.413401,-9.80618
1680262351610085900,-0.000343141,-7.01845e-05,-0.000526623,0.151329,0.415122,-9.79566
1680262351665649900,-0.000180821,0.000411513,0.000119384,0.166052,0.39659,-9.78374
1680262351732153000,0.00025511,-0.000410461,-1.24336e-05,0.166925,0.411885,-9.79553
1680262351763753900,-0.000335095,-9.50261e-05,-0.000367891,0.17407,0.411849,-9.79703
1680262351802506000,-3.5752e-05,-6.69472e-05,5.30698e-05,0.161224,0.426888,-9.79328
1680262351835774600,0.000531617,-0.000340118,-2.21504e-05,0.145963,0.424456,-9.79953
1680262351845951000,-0.00234657,0.000133912,0.000355457,0.158145,0.410304,-9.76537
1680262351858888000,0.00150857,0.000433371,-0.00111652,0.165367,0.383417,-9.7927
1680262351873963800,0.000988059,0.00087018,-0.000300152,0.149117,0.442546,-9.79568
1680262351887164000,0.000360093,-0.000512039,0.000914849,0.199568,0.425558,-9.78082
1680262351900374500,0.000348979,-0.000225846,0.000917147,0.164972,0.418766,-9.804
1680262351909616400,-0.000202947,-0.00080136,-2.85982e-05,0.185161,0.470615,-9.81404
1680262351922467500,0.000361893,-0.00117546,-4.6898e-05,0.214443,0.4402,-9.77024
1680262351935400400,0.000403564,9.35058e-05,0.00065783,0.216424,0.409081,-9.77925
1680262351944441900,0.00022993,0.000388983,-0.000199922,0.149308,0.415158,-9.8067
1680262351955697700,-0.000359433,0.000114222,0.00050027,0.161297,0.408547,-9.79673
1680262351968750500,0.0004201,-0.000550648,0.00109023,0.174452,0.413546,-9.81806
1680262351977821700,-0.00126214,0.00154308,0.000841676,0.134425,0.386182,-9.73722
1680262351989072800,-0.000183582,0.000381511,-0.0015735,0.169983,0.391346,-9.81042
1680262352001813900,-0.000400444,-2.05944e-05,0.000833282,0.166851,0.443199,-9.77204
1680262352010607800,-0.000284864,-0.000148048,-0.00131034,0.153665,0.439873,-9.80542
1680262352022391800,0.000796014,-0.000375177,-0.000101495,0.131828,0.42057,-9.73705
1680262352035280500,0.000135896,-0.000456379,-0.000536655,0.155243,0.41098,-9.80011
1680262352043958800,-0.00026893,0.00138407,0.00113645,0.153643,0.360619,-9.77324
1680262352056033300,0.000440748,-0.000748783,-0.000373831,0.168013,0.420006,-9.80215
1680262352069428300,0.000589291,-0.000320686,-0.000187687,0.133931,0.407148,-9.78156
1680262352078412300,0.000300214,0.000872429,0.000298867,0.154076,0.431603,-9.82095
1680262352088966700,-0.000372965,0.000136794,-0.00102215,0.153472,0.342679,-9.81885
1680262352101277000,-0.000586779,0.000552818,-0.000205599,0.123272,0.425952,-9.79618
1680262352110008700,-5.25829e-05,-0.000500137,-0.000355138,0.217744,0.410521,-9.78088
1680262352118477200,0.00140823,-0.00152005,0.00102632,0.178012,0.387063,-9.80512
1680262352126798200,3.84382e-05,7.86571e-05,0.000295156,0.216235,0.411351,-9.78667
1680262352135102400,-0.00113214,0.00118271,0.00103418,0.218138,0.438397,-9.75844
1680262352143413300,0.000341327,0.000199695,0.000581402,0.213322,0.39569,-9.86691
1680262352151780100,0.000740102,0.00115715,-0.000750555,0.188438,0.40898,-9.77443
1680262352160110500,-0.000934023,-0.000167217,-0.000219506,0.145929,0.425615,-9.80801
1680262352169324500,-0.00128817,-0.000223449,0.000137627,0.154966,0.440126,-9.8251
1680262352200135600,-0.000794409,0.000289923,-0.000260012,0.182526,0.418415,-9.77691
1680262352208299700,0.000944257,0.000108451,0.000295131,0.163592,0.396287,-9.75848
1680262352216858000,0.000182794,0.000244177,0.000326795,0.155088,0.418492,-9.83674
1680262352224996900,-0.00120288,-0.000285265,0.000767769,0.114506,0.426928,-9.7861
1680262352233783000,0.00079496,-0.00028963,-0.000162185,0.164154,0.400367,-9.755
1680262352241650500,-0.0013256,-0.000488254,0.000603705,0.162438,0.439805,-9.81127
1680262352250114200,0.0010491,-0.000499619,0.000631918,0.124908,0.407386,-9.80796
1680262352258402100,0.00100786,0.00248322,-0.00101409,0.182539,0.428966,-9.82034
1680262352266917500,-0.0005024,0.000920573,-0.00100574,0.264249,0.428781,-9.80621
1680262352274989300,-0.000992464,0.000839153,0.000109252,0.132142,0.409772,-9.81016
1680262352283427700,0.00102689,0.000153376,0.000526771,0.163783,0.432515,-9.85188
1680262352291704300,-0.000421536,-0.000195896,-0.00106913,0.15593,0.436634,-9.80295
1680262352300162800,0.000434004,-0.00084529,0.00242847,0.182638,0.396117,-9.82255
1680262352308291400,0.00099165,-0.000406834,-0.000694896,0.173096,0.444188,-9.80341
1680262352316758600,-0.00046144,0.00135929,-0.000291427,0.194301,0.422258,-9.7852
1680262352325470100,-0.000760369,0.000131453,0.000479497,0.10537,0.411863,-9.81019
1680262352333495600,-0.00217272,-0.000408204,-0.000275494,0.180722,0.432436,-9.77451
1680262352341864800,-5.1581e-05,-0.00080133,0.000527763,0.164811,0.446529,-9.80315
1680262352350103200,0.000902644,0.00138292,-0.00109581,0.16398,0.419321,-9.77819
1680262352358424700,0.000797519,-0.000806543,0.000735948,0.201191,0.464563,-9.8466
1680262352366885700,-0.00131359,-0.0012999,0.000214889,0.200272,0.430252,-9.78191
1680262352375157500,0.000572011,0.000431813,-0.000560297,0.160927,0.40963,-9.78191
1680262352383437400,0.000478149,-0.00112742,0.00126211,0.179819,0.46123,-9.78151
1680262352392904400,0.000567913,0.000390416,0.00075175,0.163709,0.425703,-9.80642
1680262352400178100,0.00173353,0.000575119,-0.000625694,0.189794,0.413649,-9.80478
1680262352408333800,0.00163063,0.00109774,-0.00186466,0.171188,0.419992,-9.73997
1680262352416804800,0.000561103,0.000416162,-0.00238183,0.165869,0.397765,-9.81117
1680262352425299100,0.000348193,0.00034696,0.000923515,0.159155,0.328162,-9.78671
1680262352433403100,-0.000504682,0.00129713,-0.000693932,0.145899,0.389515,-9.7893
1680262352441663800,0.000260713,-0.00181487,0.00215666,0.116271,0.433257,-9.77006
1680262352450049200,0.000821413,0.000279694,4.82303e-05,0.177345,0.43952,-9.83125
1680262352458412500,0.000927697,0.000610001,0.000608726,0.186309,0.447282,-9.76199
1680262352466813800,0.000866448,-0.000383941,-0.000415402,0.173641,0.397828,-9.78909
1680262352474993500,-0.00151677,0.00025819,-0.000578309,0.182523,0.3989,-9.77353
1680262352483400300,-0.000666766,0.000612348,-0.00127304,0.171475,0.429042,-9.85728
1680262352491786600,-0.00073274,-0.000784185,0.000702931,0.199067,0.447855,-9.77862
1680262352500035800,-0.000268969,0.00026345,-0.000303768,0.167933,0.451513,-9.80786
1680262352508307200,0.000367267,9.79691e-05,-0.000888776,0.164779,0.45465,-9.79719
1680262352516711700,0.00121504,-0.000584762,-0.00104762,0.188648,0.380833,-9.78531
1680262352524974600,-0.000215814,-0.00182471,-0.000874605,0.173578,0.38381,-9.76677
1680262352533367900,3.82462e-05,-0.000766567,0.000278836,0.175706,0.384235,-9.79475
1680262352541618100,0.00254058,-0.000441792,-0.00156276,0.170443,0.459451,-9.7793
1680262352550044100,0.000180131,0.00097532,-0.000593649,0.154852,0.402754,-9.79692
1680262352558317300,-0.00053128,-0.000441625,8.08999e-06,0.160071,0.387723,-9.79291
1680262352566874000,0.000614295,3.39453e-05,-0.00138426,0.175252,0.443421,-9.77354
1680262352575004500,-0.000436218,0.000240816,-0.00174784,0.167736,0.411116,-9.77282
1680262352583415500,-8.46829e-05,-0.000490034,-0.00132891,0.183944,0.413629,-9.84216
1680262352591631700,-0.000263325,-0.000780777,-0.000775749,0.111916,0.425341,-9.76682
1680262352600062700,0.00148788,-0.00130888,0.000574767,0.159268,0.409527,-9.79841
1680262352608466900,-0.000442974,0.00199698,-0.00236843,0.19918,0.465994,-9.82279
1680262352616783000,8.60142e-05,0.00214948,-0.00144702,0.200059,0.405144,-9.77021
1680262352624974900,-0.000603008,-0.000575056,-9.42463e-06,0.182728,0.399448,-9.85425
1680262352633384800,0.000592107,-0.000640884,0.00108289,0.199494,0.421128,-9.78611
1680262352641735400,-0.000186879,-0.000272724,-0.000128087,0.140768,0.408163,-9.75775
1680262352650033600,0.000749766,-0.000556669,0.000352218,0.128773,0.426564,-9.78247
1680262352658296400,0.000730013,0.000445431,-0.000671475,0.162574,0.447814,-9.77229
1680262352666711100,0.000887918,-0.0014936,0.000145243,0.171209,0.442532,-9.81124
1680262352675092200,0.000289075,0.000398254,0.000825984,0.135469,0.367989,-9.78797
1680262352683427100,-2.92068e-05,-0.000364278,-0.000632037,0.143078,0.449349,-9.82868
1680262352691661100,0.000618644,-0.000223509,-0.00116104,0.143476,0.440436,-9.82465
1680262352700067100,0.000154598,-0.000491236,0.000546429,0.188859,0.422302,-9.77697
1680262352708315800,0.000836593,0.000142416,-0.000660997,0.163865,0.430159,-9.79865
1680262352716707800,-0.00017588,0.000199166,0.000698566,0.178884,0.398809,-9.78014
1680262352724971800,0.00156936,-0.000148518,0.000388192,0.156601,0.401892,-9.77785
1680262352733384800,-0.00036657,0.000680871,-3.74979e-05,0.168936,0.404136,-9.74987
1680262352741669800,8.6454e-05,-3.04912e-05,0.00132838,0.165476,0.443897,-9.77861
1680262352750033900,-0.000118081,0.000256074,-0.000814233,0.147868,0.379462,-9.79923
1680262352758428400,-0.000674942,0.000381017,0.00176442,0.160599,0.399423,-9.76062
1680262352766897800,-0.000725203,-0.000153655,-0.000534983,0.201247,0.428699,-9.81044
1680262352774976500,0.000129049,0.000943755,0.00130133,0.185863,0.425341,-9.81974
1680262352783381300,6.92171e-06,-0.000416431,0.00114824,0.138958,0.411677,-9.78219
1680262352791628000,0.000227435,0.000505778,-0.00105831,0.156898,0.437756,-9.77789
1680262352800053300,5.59632e-05,-0.000223031,0.00261151,0.120499,0.415084,-9.82371
1680262352808300300,-0.00142055,0.000113946,-0.00122282,0.156949,0.417293,-9.73642
1680262352816869900,0.000106292,-0.00108022,0.00137514,0.169505,0.414233,-9.78586
1680262352825014300,8.3044e-05,0.000679895,-0.000633795,0.157001,0.382973,-9.77387
1680262352833428500,0.000773438,-0.000971342,0.000922835,0.167999,0.438225,-9.76609
1680262352841645100,0.000525818,6.68547e-06,-0.000372147,0.153187,0.448235,-9.77485
1680262352850046200,2.78184e-05,0.000402936,0.00144371,0.195716,0.379647,-9.79232
1680262352858373900,-0.000191518,-0.000803291,-0.0004926,0.218274,0.409185,-9.72768
1680262352866795800,0.0016055,-0.000716567,-0.000182403,0.184466,0.450119,-9.77555
1680262352875154200,0.00115195,0.000223844,-0.00179797,0.211606,0.385374,-9.80584
1680262352883718900,-0.000493966,-0.00132587,0.000639432,0.0937529,0.390219,-9.79921
1680262352891791300,0.000248026,0.000413768,0.000987638,0.156871,0.37325,-9.77589
1680262352900130600,-0.000156049,2.56876e-05,0.00142268,0.116465,0.396874,-9.77417
1680262352908496700,-0.00139197,0.000246486,-0.000537273,0.173448,0.390913,-9.77501
1680262352916877900,0.00107392,0.00051357,-0.000487628,0.15172,0.406479,-9.78917
1680262352925074600,0.00104028,-0.000805126,-0.00042594,0.157227,0.395024,-9.80861
1680262352933445800,0.000542576,0.00187663,5.91177e-05,0.188936,0.402495,-9.7575
1680262352941642700,-0.000652864,0.000351294,-0.000200561,0.182607,0.431769,-9.81762
1680262352950159100,0.0011995,0.00108906,0.000158801,0.16887,0.447708,-9.77645
1680262352958355100,0.000156565,0.00146256,-0.00150887,0.146149,0.405271,-9.78276
1680262352966741000,-0.0026733,0.000520934,-0.000647181,0.164864,0.441466,-9.76867
1680262352974992700,0.00077192,-0.000759326,-0.000908881,0.180516,0.39277,-9.78232
1680262352983564500,-0.000599065,5.67432e-05,0.000805377,0.155854,0.426509,-9.80571
1680262352991681100,-0.00100998,-0.00270634,-0.000770252,0.153435,0.366988,-9.77626
1680262353000046500,-0.00143054,-0.000640188,-0.0012332,0.134032,0.422728,-9.8105
1680262353008305700,0.000761574,-0.000804786,-0.00210233,0.178018,0.360769,-9.80676
1680262353017005000,-0.00084484,0.000910003,0.000311802,0.122793,0.443083,-9.78143
1680262353025053800,-0.0014051,-0.00122133,0.00113188,0.121591,0.377965,-9.78643
1680262353033446800,0.000339578,0.00198174,0.000108267,0.158049,0.450949,-9.78523
1680262353041656100,0.0003486,-0.000401195,0.000132622,0.170602,0.405376,-9.82388
1680262353050334100,-0.000581569,0.000615494,-0.00114077,0.149933,0.432329,-9.81374
1680262353058420700,0.000196355,0.00116075,-6.99717e-05,0.16081,0.423679,-9.80657
1680262353066732900,0.001361,0.000542679,-0.000194147,0.128074,0.402408,-9.76971
1680262353074981800,0.000209868,-0.00133221,0.000107169,0.229971,0.424892,-9.79904
1680262353083525500,-0.000217624,-0.00168469,0.000943014,0.206036,0.439055,-9.79893
1680262353091729800,5.54226e-05,-0.000169466,0.000714745,0.164159,0.409756,-9.78694
1680262353100168300,-0.000965924,-6.72789e-05,0.000340407,0.167332,0.430333,-9.81139
1680262353108484600,-0.000972213,-0.000149943,-0.00167113,0.16759,0.423604,-9.7979
1680262353116774500,-0.000808786,-0.00112263,0.00144546,0.135782,0.462299,-9.78541
1680262353125036200,0.000820916,-6.37553e-05,0.00160004,0.198965,0.419055,-9.81228
1680262353133550200,0.000939213,0.000786013,0.00113115,0.199682,0.474699,-9.82094
1680262353141688500,0.000379835,0.0010098,-0.000467002,0.180465,0.429882,-9.82984
1680262353150129800,0.000586464,0.000139089,-0.000309154,0.170128,0.399852,-9.82549
1680262353158316500,-0.000779668,0.00149579,0.00146519,0.128456,0.421993,-9.82054
1680262353166709400,0.000505332,0.000907846,0.000312642,0.22151,0.415858,-9.80567
1680262353174995200,0.000261195,0.00120802,0.00195506,0.147117,0.436696,-9.76511
1680262353183383800,-0.000152936,-0.000588579,-0.000198243,0.135417,0.387349,-9.83928
1680262353191643300,0.00140382,0.000613042,-0.000572548,0.193259,0.436882,-9.80046
1680262353200072400,-0.000339185,-0.000936943,-0.000898615,0.222757,0.394384,-9.78342
1680262353208328700,0.000649759,-0.00131781,-0.00195773,0.172189,0.388435,-9.7778
1680262353216729900,-0.000256797,-0.00151727,-4.49254e-05,0.179062,0.387773,-9.77483
1680262353224977900,0.0014188,-0.00163679,0.00192242,0.17226,0.3738,-9.78066
1680262353233392400,-0.00130887,-0.000650249,-0.000220932,0.187097,0.395855,-9.77737
1680262353241679700,0.000240582,-0.000485862,0.000586619,0.205534,0.457486,-9.85497
1680262353250072400,0.000330279,0.000505422,0.0013499,0.168321,0.454433,-9.77662
1680262353258289400,-0.000451732,0.0004934,-0.000903138,0.203602,0.42216,-9.78045
1680262353266745100,-3.53262e-06,0.0010477,-8.29578e-05,0.141142,0.453668,-9.77055
1680262353274977300,-0.000462441,0.00102911,-0.000794569,0.125666,0.49501,-9.80146
1680262353284458300,0.000635185,0.00148059,0.000631825,0.173293,0.412501,-9.81482
1680262353291644100,-0.0003951,-0.00161414,0.000263614,0.119632,0.415208,-9.79165
1680262353300177700,-0.000117623,-0.00146271,0.000801224,0.180847,0.414418,-9.81117
1680262353308351000,0.000771001,0.000343565,0.000183033,0.176462,0.373337,-9.83914
1680262353316771500,0.000441172,0.000197393,0.000385119,0.166889,0.387823,-9.76572
1680262353324995200,0.00015602,0.000898367,-0.00197616,0.177537,0.418544,-9.79837
1680262353333481900,-0.00102318,0.000489606,0.00101006,0.131667,0.416711,-9.79081
1680262353341635600,-0.000832924,-0.000623419,-0.00119886,0.160649,0.428905,-9.82802
1680262353350072100,0.0003178,0.000201046,1.09161e-05,0.182804,0.436654,-9.79721
1680262353358311900,-0.000312238,-0.000346363,-0.000284928,0.220911,0.436295,-9.77875
1680262353366722000,-5.29478e-05,0.00158863,0.00181888,0.204453,0.43522,-9.81203
1680262353374992200,0.000164291,-2.16906e-05,-0.00148063,0.170598,0.409786,-9.75001
1680262353383541200,-0.000794149,0.000854076,-0.00143843,0.156773,0.424135,-9.79386
1680262353392475500,0.000126898,0.000591285,-0.000803664,0.152605,0.354719,-9.81807
1680262353400116700,0.000759311,0.000329666,-0.000274972,0.1661,0.438206,-9.77256
1680262353408346000,0.000232133,-0.000134521,5.26503e-05,0.12632,0.384097,-9.79693
1680262353416729600,0.000923343,7.46001e-05,0.00124924,0.172253,0.448753,-9.74258
1680262353424973300,0.000595463,-0.00131958,8.27334e-05,0.134134,0.402189,-9.7652
1680262353433381300,0.000763664,0.00165423,-0.00183147,0.140216,0.401548,-9.81375
1680262353441633800,0.000442196,-0.000560909,-0.000579106,0.174566,0.457643,-9.82116
1680262353450093800,0.00141062,0.00147357,0.000343215,0.166633,0.417774,-9.82856
1680262353458284500,-0.000882353,-0.000491736,0.000201252,0.170789,0.39881,-9.82371
1680262353466711900,-0.000316753,-0.000730403,-0.000491531,0.20495,0.44788,-9.74346
1680262353474996400,-0.00175635,-0.00216566,0.000579002,0.133629,0.415014,-9.77006
1680262353483383300,0.000604569,0.00034483,0.000188638,0.170822,0.439994,-9.77067
1680262353491624500,5.2476e-05,0.00118165,-0.000430497,0.177215,0.404874,-9.79722
1680262353500035000,0.00035325,-0.000147654,0.000164196,0.168895,0.386195,-9.76708
1680262353508303000,-0.000698414,0.00137693,-0.000309416,0.170742,0.406895,-9.79769
1680262353516877300,0.00065733,-0.0012074,-0.000259198,0.16049,0.398737,-9.76265
1680262353525078500,0.000426938,0.000845688,0.000992924,0.19247,0.388477,-9.78934
1680262353533407800,-0.00140977,0.000375326,-1.7667e-05,0.177475,0.462111,-9.79258
1680262353541656900,0.000100481,-5.02611e-05,0.000463692,0.110295,0.363908,-9.80326
1680262353550067300,-0.00136415,0.000560842,0.000447439,0.148586,0.421832,-9.79526
1680262353558304400,-9.87109e-05,-0.000277531,-0.000906736,0.181733,0.401552,-9.81954
1680262353566709100,3.35515e-05,0.00129959,-0.000845702,0.165237,0.431395,-9.76045
1680262353574968500,0.000895747,0.00050025,0.000216311,0.136371,0.426207,-9.78992
1680262353583373300,0.000807205,-0.000754873,0.000491676,0.149537,0.413657,-9.80558
1680262353591668900,0.000862568,0.000234996,-0.0029332,0.145506,0.443867,-9.8205
1680262353600055200,-5.72758e-05,-0.00237413,-0.000123739,0.200298,0.402192,-9.7985
1680262353608314700,-0.000652502,-0.000703267,0.0010995,0.146525,0.405036,-9.79932
1680262353616710700,3.02607e-05,-0.00138473,-0.000573942,0.100601,0.448447,-9.81868
1680262353624987800,-0.0013599,-7.83423e-05,0.000113125,0.132788,0.410992,-9.74536
1680262353633375700,9.49933e-06,-0.00025156,0.000447772,0.15699,0.422472,-9.77
1680262353641651600,-0.00134095,-0.000203623,0.000699872,0.19208,0.418344,-9.8055
1680262353650054800,-0.000367568,0.000272303,0.00107021,0.171455,0.473331,-9.81081
1680262353658318700,-0.00102024,-0.000148392,-0.00180113,0.174842,0.416942,-9.79591
1680262353666727600,-0.000307332,-0.000742451,0.000796806,0.189017,0.415644,-9.84229
1680262353674980700,-0.000145037,-0.000381924,-0.000254667,0.144215,0.425712,-9.80679
1680262353683401300,-0.000917972,0.000221053,0.00090726,0.182504,0.396647,-9.75862
1680262353691670200,-0.000919205,-0.000577744,-0.000344615,0.168818,0.415431,-9.78391
1680262353700043100,0.00204182,0.00158203,0.00104085,0.154929,0.461474,-9.77513
1680262353708309100,-0.00211689,0.00192652,0.000381573,0.156096,0.425856,-9.80481
1680262353716799600,6.48116e-06,0.000198367,-0.000211499,0.0983987,0.403808,-9.79091
1680262353725072100,-0.000595516,-0.000674581,0.000309164,0.154137,0.447001,-9.79656
1680262353733398900,0.000641536,-0.00181659,-0.00165521,0.128743,0.367577,-9.79561
1680262353741651100,0.00159086,0.0012859,0.00215133,0.161417,0.34959,-9.79007
1680262353750092400,-0.000671433,-0.000206052,0.000462643,0.169239,0.411109,-9.82161
1680262353758314000,0.0013178,-5.23855e-05,0.00037429,0.223945,0.448226,-9.82065
1680262353766741600,0.00156315,-0.000271855,-0.001202,0.161143,0.439616,-9.75787
1680262353774989000,3.06629e-05,-0.000758115,-0.000225398,0.175837,0.418693,-9.7992
1680262353783417900,-0.00257948,-0.000937869,0.00125152,0.165624,0.452988,-9.80852
1680262353791643500,-0.00146305,0.000445448,0.00150559,0.177596,0.405122,-9.81805
1680262353800060700,0.00166768,0.00118782,0.00224378,0.147525,0.429061,-9.77248
1680262353808315200,-0.00112658,-0.00152747,-0.000590258,0.156331,0.366617,-9.80283
1680262353816805200,-0.000140835,0.00125583,0.000241578,0.170617,0.400203,-9.76629
1680262353824995000,-0.00103837,-0.000172055,0.000673355,0.143387,0.405206,-9.79623
1680262353833485700,0.00126846,-0.000791507,-0.000561661,0.214422,0.421214,-9.86138
1680262353841715400,0.000464871,0.000114026,-0.000927038,0.241651,0.401364,-9.79747
1680262353850090100,0.000856369,-0.000130452,0.000988664,0.158151,0.421586,-9.73752
1680262353858308900,0.000352386,-0.000660777,-0.00119308,0.1728,0.430551,-9.82031
1680262353866704800,-0.000690916,0.00125244,0.000712023,0.149816,0.405587,-9.8385
1680262353875007500,-7.53268e-06,-0.000176251,-0.000925416,0.177023,0.396734,-9.83312
1680262353883391100,0.000231026,0.00117373,-0.00171298,0.175097,0.419911,-9.73964
1680262353891655100,-0.000396423,0.000251477,-0.000937671,0.133452,0.455678,-9.81629
1680262353900066200,0.000311655,-9.85308e-05,-1.92687e-05,0.168781,0.425242,-9.81773
1680262353908334000,0.00156576,0.000397653,0.000198613,0.175335,0.440119,-9.81359
1680262353916795100,-0.000705287,0.000117827,0.00118333,0.155871,0.380015,-9.76169
1680262353925118900,-0.000413466,-0.000666065,-0.000309887,0.135139,0.420046,-9.74627
1680262353933528000,-7.39835e-05,-0.000181897,0.00033127,0.171278,0.381598,-9.75961
1680262353941684900,-0.00172181,-0.000116256,0.000574926,0.152779,0.420147,-9.79887
1680262353950171000,-0.000112798,0.000327594,-0.000703828,0.167941,0.416705,-9.79481
1680262353958348600,0.000787837,0.000998296,0.000984379,0.137497,0.427927,-9.75695
1680262353966732000,0.00296926,-0.00112777,0.000627619,0.168082,0.412397,-9.82058
1680262353975006600,0.000844022,-0.000929474,-0.00155584,0.168631,0.420152,-9.8051
1680262353983470800,0.00100691,-0.00149751,-0.000102001,0.139315,0.43189,-9.8296
1680262353991694700,0.000484794,-0.000387702,0.0002151,0.110628,0.456403,-9.81634
1680262354000067300,0.000438364,0.00103082,0.000490184,0.197162,0.465638,-9.80506
1680262354008309400,0.00106025,0.00115803,0.000184234,0.160694,0.377415,-9.7871
1680262354016728400,3.6832e-05,-0.000983733,2.29697e-05,0.199418,0.375537,-9.77999
1680262354024999800,0.000493593,-0.00203081,0.000487236,0.146838,0.421088,-9.81685
1680262354033415600,-0.000513621,0.000393207,0.00143547,0.127019,0.439245,-9.79903
1680262354041651300,-0.000340265,0.000733406,-0.000908183,0.120747,0.392448,-9.78276
1680262354050273400,-0.000775602,0.000470761,-0.000893441,0.139816,0.45042,-9.79277
1680262354058335200,-0.00132312,0.00169891,0.000172191,0.153353,0.406411,-9.779
1680262354066746500,0.000317659,-0.000409734,0.000721845,0.201854,0.448729,-9.8257
1680262354075036200,0.0010715,2.75415e-05,-0.00106007,0.15469,0.426357,-9.74926
1680262354083381200,-0.00117079,-0.000714877,0.000312234,0.161597,0.41468,-9.7719
1680262354091684400,0.000439734,-0.000198235,-0.00156717,0.12878,0.390381,-9.78253
1680262354100110200,0.000460732,-0.00158813,-0.00109007,0.169149,0.447473,-9.73552
1680262354108375800,-0.00166688,-0.00122991,0.000531452,0.166141,0.436668,-9.83829
1680262354116719700,0.000261459,0.00108335,-8.36164e-05,0.106567,0.380236,-9.78965
1680262354125114000,-0.000385189,-0.000339683,-0.000463261,0.119468,0.442702,-9.76706
1680262354133439200,0.000182085,0.000441752,0.00147259,0.171492,0.42256,-9.78708
1680262354141698500,0.000656039,-0.000661304,0.000113212,0.151824,0.413361,-9.79569
1680262354150068400,0.000110765,-0.00162458,0.00131255,0.175392,0.432904,-9.8149
1680262354158350900,0.000723363,-0.000617081,-0.00058801,0.149848,0.440672,-9.79491
1680262354166746500,-0.000151761,0.000862158,-0.000677205,0.20543,0.43666,-9.77254
1680262354174996700,-0.00105221,0.00126345,-0.000187987,0.163874,0.447411,-9.80341
1680262354183449600,0.00147058,0.000585119,0.000507536,0.201962,0.385215,-9.80802
1680262354191660900,0.000446541,-6.10583e-06,0.000701413,0.157019,0.430778,-9.82205
1680262354200084500,-0.000751305,0.00093698,-0.000586889,0.208241,0.431284,-9.82137
1680262354208327300,-0.000235415,0.000373251,0.00107074,0.0762344,0.4401,-9.82518
1680262354216754900,-0.000598528,-0.000639111,1.68997e-05,0.169499,0.409712,-9.73694
1680262354225194200,-0.000330416,-0.00145392,0.000212111,0.18164,0.466505,-9.8322
1680262354233499800,-0.00136315,-0.000853345,-0.000742187,0.173143,0.396832,-9.83586
1680262354241809900,0.00157226,0.00130413,0.000502845,0.177246,0.400367,-9.79789
1680262354252669400,0.00138394,0.000382144,-0.000403923,0.171085,0.430071,-9.78386
1680262354263805900,0.000596094,-0.000528087,0.000763444,0.183807,0.429205,-9.79718
1680262354273712300,-0.00176692,0.000131707,0.00138593,0.146264,0.418809,-9.81554
1680262354286430700,-0.00156978,-0.00121107,-4.29756e-05,0.148734,0.391616,-9.80526
1680262354297267400,-0.0017781,-0.000269763,0.00135564,0.159193,0.461389,-9.8198
1680262354306590400,-5.18092e-05,8.54577e-05,-0.000440943,0.152602,0.425424,-9.8021
1680262354318450800,-0.00127128,0.000264992,0.000139986,0.175863,0.449193,-9.78391
1680262354327345200,-0.00119685,0.000703205,0.000511359,0.219906,0.422098,-9.8015
1680262354337037900,0.000413311,-0.000234993,0.000590351,0.16388,0.421429,-9.77967
1680262354346158400,0.00121596,-0.000730873,-0.000136904,0.125659,0.397624,-9.79546
1680262354355360400,0.000295603,-0.000287573,0.000816222,0.141848,0.447472,-9.79283
1680262354368468800,0.000433263,7.24753e-06,0.000139441,0.157307,0.437589,-9.78218
1680262354377307100,0.00072675,7.62389e-06,-0.000145367,0.14784,0.43471,-9.81161
1680262354386923700,0.000679609,0.00098843,0.00105914,0.13035,0.414248,-9.80892
1680262354398575400,0.00158371,-0.000426244,0.000798625,0.147406,0.400985,-9.78278
1680262354407082200,0.000806313,-0.000318807,-9.75693e-05,0.171729,0.387812,-9.82085
1680262354418498200,-0.000247235,0.00065573,3.44161e-05,0.192503,0.465337,-9.79469
1680262354427284700,-0.000571298,0.00223638,-0.000677684,0.144251,0.434654,-9.83256
1680262354438535600,4.22854e-05,0.00163834,-0.000214026,0.185641,0.387103,-9.77922
1680262354448153400,0.000356359,-0.000374368,-0.000198799,0.130001,0.409605,-9.76292
1680262354456887300,0.000250225,-0.000721442,-0.000939281,0.151598,0.461507,-9.8024
1680262354468533000,-0.000386457,0.00064544,0.000813265,0.167784,0.40694,-9.77592
1680262354477259300,-0.000927559,1.30496e-06,0.000576276,0.149649,0.429383,-9.79392
1680262354487268800,0.000178488,0.000975113,5.40244e-05,0.184765,0.444384,-9.8415
1680262354496045900,-0.000169334,-0.00194473,0.000133409,0.132471,0.464888,-9.76389
1680262354504753600,0.00207276,0.000121261,4.15063e-06,0.184081,0.411734,-9.82064
1680262354518511300,-0.000254551,0.00088652,-0.000366949,0.167535,0.438418,-9.78922
1680262354527242500,0.000414691,-0.000337809,0.00264538,0.17269,0.439344,-9.78015
1680262354536912500,0.00198203,0.000719411,-1.80583e-05,0.186663,0.385673,-9.73855
1680262354547487600,-0.000416623,-0.00039758,0.00130108,0.18542,0.397966,-9.78107
1680262354556423300,4.47654e-05,-0.00077023,0.00103392,0.157541,0.395861,-9.80163
1680262354568551600,-0.00126019,0.00056838,-0.00100884,0.175652,0.426428,-9.78013
1680262354577376800,0.00192393,0.000638889,-0.00204503,0.13621,0.434464,-9.80103
1680262354587035100,-0.00154379,-0.000328014,0.00108121,0.165345,0.416841,-9.74842
1680262354596001600,-0.000415077,-0.000240125,-0.000345812,0.15586,0.411454,-9.81315
1680262354604342500,0.000446118,0.000736046,-0.000656692,0.128565,0.373023,-9.77028
1680262354614000500,0.000497049,-0.00154683,9.91563e-05,0.135234,0.443628,-9.76045
1680262354622712700,-0.00119542,-0.000317358,-0.00149736,0.171305,0.457793,-9.79353
1680262354635163400,-0.000774788,-0.000203144,0.000910148,0.177724,0.394738,-9.80704
1680262354643957800,0.000589273,-0.00110665,-0.000889162,0.134654,0.390809,-9.78096
1680262354653605600,0.000199386,-9.15358e-05,0.000506688,0.186667,0.415117,-9.77532
1680262354662411800,6.10521e-06,0.000564871,0.00119519,0.184524,0.473018,-9.77757
1680262354670918600,-0.00131084,0.00199775,-0.00150304,0.147064,0.476569,-9.7483
1680262354680867000,0.000950136,-7.09983e-05,-2.67575e-05,0.174809,0.424031,-9.79687
1680262354689548800,0.00100397,0.000162568,0.00148694,0.185912,0.471101,-9.82387
1680262354701796600,-0.00141074,-0.000448569,-0.0011139,0.187102,0.437271,-9.78758
1680262354710634200,-0.000887227,0.000822046,0.000597959,0.168719,0.435149,-9.79353
1680262354720319600,-0.000106326,-0.000384248,-0.000580924,0.180334,0.395602,-9.78874
1680262354729044200,-0.00137376,-0.00084288,9.32282e-05,0.152834,0.418267,-9.77523
1680262354737727100,-1.00645e-05,-0.00159891,0.00108815,0.134137,0.460412,-9.79328
1680262354747556200,0.000208841,0.000313636,0.000979244,0.189031,0.416103,-9.79876
1680262354756594600,3.98506e-06,0.00103314,-0.000223562,0.103781,0.421223,-9.8469
1680262354768586100,-0.000823169,0.00100531,-0.00014418,0.199923,0.435568,-9.8169
1680262354777394100,0.00113271,0.000483209,0.000615289,0.134561,0.439117,-9.82145
1680262354787018900,-0.00037799,-0.000833959,0.00014701,0.171039,0.409338,-9.7989
1680262354795849200,0.000617611,0.000129734,0.000767325,0.199936,0.411833,-9.79476
1680262354804667600,-0.00146392,0.00051822,-0.000958266,0.127971,0.418242,-9.87706
1680262354814563300,0.000229136,-0.000110995,-0.000277586,0.13181,0.412261,-9.8135
1680262354823298200,-0.000327791,0.00140019,-0.000144258,0.182282,0.421472,-9.78072
1680262354835247800,8.9036e-05,0.000219312,-0.000343541,0.169593,0.386885,-9.7625
1680262354844022600,-0.000678578,0.000918631,0.000360913,0.153006,0.415054,-9.78654
1680262354853631600,0.00147043,-3.06585e-05,0.0002279,0.153809,0.441674,-9.76184
1680262354862287300,0.000263468,-0.00133585,0.00133012,0.154169,0.428718,-9.8367
1680262354871402300,0.00158495,-0.00249477,-0.000931924,0.163121,0.393521,-9.78745
1680262354881187500,0.000435391,0.000331976,0.00137713,0.2166,0.425134,-9.81899
1680262354890216900,-0.000624549,0.00170934,1.71563e-05,0.141361,0.406565,-9.81335
1680262354902156300,0.00206217,-0.000209988,-0.000237959,0.16047,0.365764,-9.76927
1680262354914586200,-0.00109259,0.000188335,0.00064921,0.20044,0.428744,-9.80623
1680262354923572400,6.2882e-05,0.000494416,-0.000981691,0.150749,0.428678,-9.85586
1680262354935200900,-0.000472273,-0.000375674,0.000567778,0.139766,0.416173,-9.7876
1680262354944029700,-0.00202404,-0.000815166,-0.000884802,0.16609,0.392841,-9.81043
1680262354953808200,0.000223467,-0.00102408,8.06667e-05,0.160667,0.432083,-9.80178
1680262354962794600,0.000319303,0.000400647,8.62671e-05,0.139303,0.428608,-9.80954
1680262354971976300,-0.000501204,9.76883e-07,-0.00176993,0.179214,0.407631,-9.81075
1680262354985172800,0.000276739,0.000695451,0.000545929,0.171298,0.381695,-9.80492
1680262354994071500,-0.000900077,-0.00135586,-0.00114185,0.17647,0.431517,-9.78561
1680262355003979800,0.000493658,0.000763564,0.000133781,0.178048,0.433817,-9.80048
1680262355012628900,-0.000373872,0.00155533,-0.000402639,0.213679,0.390464,-9.78567
1680262355021403900,-0.000745659,9.15991e-05,0.000192673,0.150124,0.412638,-9.81658
1680262355035177900,-6.98181e-05,0.000570013,0.000747844,0.172543,0.473853,-9.82082
1680262355043962500,0.00171561,0.00126585,0.0003719,0.161698,0.449576,-9.80589
1680262355053607800,0.000781717,0.000301557,-0.000631039,0.149334,0.416381,-9.78882
1680262355062641000,-0.000879746,0.00090829,0.000400474,0.100296,0.426779,-9.76836
1680262355071155300,-0.000605423,-0.000910932,0.000521819,0.191539,0.397659,-9.8183
1680262355080820700,1.02754e-05,-0.00116492,-0.00156372,0.155212,0.433181,-9.80527
1680262355089533000,0.00102167,4.00442e-05,-0.000258322,0.148809,0.387318,-9.77901
1680262355101826200,-0.0010388,-0.000131959,0.000269359,0.191889,0.409506,-9.77419
1680262355110638700,-0.00130826,-0.0022105,-0.00022671,0.181163,0.394956,-9.79703
1680262355120473900,0.00062405,-0.0011427,0.000763789,0.158182,0.400628,-9.8003
1680262355129212200,-0.000802224,-0.000460252,0.000258154,0.172499,0.443113,-9.83686
1680262355137936700,0.000629419,0.00178965,0.000232162,0.180302,0.436502,-9.81834
1680262355152078600,0.00063207,-0.000469951,5.43753e-05,0.138161,0.41517,-9.79216
1680262355161571900,-0.00215561,0.00137795,0.000858091,0.119502,0.410001,-9.81046
1680262355171204300,0.000731478,-0.000871716,-7.19265e-05,0.206368,0.426691,-9.79445
1680262355180885200,0.000668551,0.00061187,-0.000318267,0.188537,0.412457,-9.85528
1680262355189482500,0.000221593,0.000912637,-0.0021608,0.11424,0.419751,-9.78817
1680262355201843200,-5.27305e-05,0.000662884,-0.000104097,0.239808,0.389278,-9.83444
1680262355210703700,-0.000825828,-0.000453382,-0.000582403,0.114911,0.432518,-9.80854
1680262355220323900,0.000366477,-0.000523068,0.000215402,0.152145,0.405221,-9.76069
1680262355228954700,-0.000892869,-0.00044579,0.000399931,0.185897,0.441903,-9.77364
1680262355237597600,-2.92252e-05,-0.000820055,-0.000279887,0.199704,0.384854,-9.78101
1680262355247338000,-0.000290113,0.00112339,-6.50949e-05,0.132774,0.45544,-9.80768
1680262355256035800,0.000487923,-0.000544206,-0.0016519,0.147536,0.392216,-9.76621
1680262355268623100,-0.000497365,-0.00112116,-0.000720297,0.214748,0.425656,-9.80505
1680262355277482900,-0.000824024,0.000284929,-0.00113603,0.16899,0.41928,-9.78994
1680262355287343800,9.15336e-05,0.00105644,0.000999949,0.127721,0.42468,-9.82842
1680262355296373300,0.00116027,0.000437565,-0.000366811,0.19174,0.386744,-9.79234
1680262355304639700,-0.000213106,-0.000245453,-0.000691751,0.167526,0.415763,-9.82719
1680262355318477000,-0.000485633,-0.000107076,0.000464702,0.15253,0.442688,-9.76227
1680262355327345800,0.00136414,-0.000388557,-0.000758138,0.135048,0.376757,-9.78781
1680262355337071100,-0.000586885,4.11365e-05,-0.000582881,0.199292,0.418712,-9.79992
1680262355345646000,-0.00155178,-0.000230937,-0.00195647,0.116889,0.434172,-9.82926
1680262355354492400,0.000475496,0.00137411,0.00152866,0.183092,0.387572,-9.7688
1680262355364044200,0.00029791,3.17533e-05,0.0011804,0.157007,0.455813,-9.77876
1680262355373094800,-0.000881722,4.67613e-05,-0.000579368,0.153914,0.489732,-9.8139
1680262355385527900,0.000521209,-0.000216846,0.000367299,0.16731,0.43163,-9.77121
1680262355396651500,-0.000242917,-0.00131451,0.000348226,0.161514,0.45256,-9.81135
1680262355405760800,0.000155546,0.000433674,0.00125114,0.17351,0.410623,-9.80631
1680262355418556800,0.000382832,0.000319298,-0.00110525,0.158368,0.37522,-9.79284
1680262355427368800,-0.000554906,0.00105242,0.000736585,0.159893,0.412789,-9.78328
1680262355437108300,-0.000767193,4.21991e-06,0.00149907,0.14961,0.451834,-9.78091
1680262355445970100,0.00108833,-0.000457438,0.000368126,0.167995,0.406312,-9.80325
1680262355454681600,-0.000508646,0.000144512,0.0012733,0.133256,0.421367,-9.82467
1680262355468500200,0.000643248,0.000881335,-0.000590922,0.181485,0.420118,-9.79012
1680262355477367500,0.00117734,0.000885073,-0.00046654,0.199733,0.465533,-9.79257
1680262355487056300,-0.00152951,0.000997405,-0.00120312,0.159573,0.419627,-9.77194
1680262355495637900,0.00125168,-0.00102912,-7.61364e-05,0.158531,0.445381,-9.83112
1680262355504312100,-0.000756294,-0.000615513,-0.000640946,0.182897,0.476586,-9.79192
1680262355514151700,-0.000207004,-0.00020339,0.00083496,0.149944,0.412618,-9.78853
1680262355522900500,-0.00137835,0.00145112,0.000447575,0.198369,0.459309,-9.78593
1680262355535143200,0.000569479,-0.000530122,-0.000571705,0.151187,0.429019,-9.78823
1680262355544016000,0.00111815,-0.000577356,0.00150817,0.160632,0.393195,-9.81111
1680262355553828000,2.85805e-05,0.000317172,0.000462513,0.145844,0.427428,-9.82619
1680262355562674100,0.00100141,0.000157659,-5.75581e-05,0.164643,0.386726,-9.80326
1680262355571398600,0.00120584,-0.000628434,-0.000872419,0.169397,0.383792,-9.78212
1680262355585370200,-0.000166046,-0.000113995,0.000190459,0.139685,0.420989,-9.78484
1680262355595019900,0.000892732,-0.000784578,-0.000264119,0.156587,0.405837,-9.85461
1680262355604067700,-7.12801e-05,0.000950556,-0.000539669,0.166207,0.453917,-9.78617
1680262355612775100,-0.000205283,0.000921553,-0.00201491,0.150479,0.416104,-9.75803
1680262355621826000,-0.00204411,0.000124173,0.000777661,0.187749,0.397684,-9.85023
1680262355635279900,0.000805485,0.00105028,0.000667196,0.14141,0.406971,-9.7802
1680262355644194500,-0.000391152,-0.00146853,0.00136103,0.207656,0.417439,-9.77502
1680262355653801100,-0.000793544,0.000202093,-0.000818054,0.152696,0.421975,-9.83179
1680262355662700200,0.00153773,0.000867791,-0.00114691,0.152867,0.385509,-9.78796
1680262355671134100,4.27618e-05,-0.000518846,0.000309936,0.111325,0.392047,-9.76515
1680262355680779500,0.000917615,-7.6488e-05,-0.00047733,0.171184,0.407347,-9.76695
1680262355689535300,0.000593283,0.00160778,-0.000849266,0.112508,0.442119,-9.76988
1680262355701849700,-0.000538974,-0.000384792,-8.49177e-06,0.165935,0.430993,-9.82526
1680262355710693600,-0.000611064,-0.00130245,0.000645648,0.160765,0.437632,-9.78281
1680262355720340200,-9.63175e-05,0.000266249,0.00152423,0.177653,0.473527,-9.79028
1680262355728976300,0.000274359,0.000855764,-8.60414e-05,0.163173,0.425394,-9.77921
1680262355737863100,-0.00047036,0.00110394,0.00104395,0.13278,0.444299,-9.79388
1680262355747509700,-0.000231487,-0.000921772,0.000593804,0.147924,0.436733,-9.82379
1680262355756361400,0.000593055,0.00045503,-0.000493239,0.11429,0.42755,-9.77258
1680262355768795900,-0.000380675,0.000502689,0.000606271,0.179913,0.430261,-9.80407
1680262355778454300,-0.00130853,0.00045124,-0.000247736,0.137409,0.375545,-9.77495
1680262355787799700,0.000682264,0.00038481,-0.000198108,0.162158,0.450434,-9.77131
1680262355797361700,-0.00128313,0.0001807,-0.000755144,0.144175,0.353682,-9.78034
1680262355806186700,0.00137406,-0.000154103,0.000844701,0.108384,0.45482,-9.79812
1680262355818511000,0.00062847,0.00127149,0.000642474,0.143691,0.404971,-9.81451
1680262355827324500,-0.000310221,0.000803996,-0.000545344,0.173077,0.419671,-9.80157
1680262355837047900,-0.000932438,0.000936813,0.000267171,0.166526,0.423299,-9.80539
1680262355846045600,-0.000622969,0.000757236,0.00025907,0.157715,0.420259,-9.81056
1680262355854715600,0.00140114,0.00135625,-0.00119763,0.186896,0.428243,-9.83823
1680262355868522200,-0.000835673,0.00109279,0.000238672,0.176997,0.444629,-9.78331
1680262355877437200,0.000107539,-1.59825e-05,0.000688101,0.189758,0.462677,-9.8238
1680262355887092900,-0.00127351,-0.000339298,-0.000668747,0.140289,0.397501,-9.80593
1680262355895877600,0.000334585,-0.000990741,-0.000369305,0.164834,0.428504,-9.81845
1680262355904689300,-0.000708688,-0.000614728,-0.000824433,0.166301,0.454464,-9.75723
1680262355918540000,-0.000905933,-0.000281524,-0.00127147,0.159968,0.430216,-9.80603
1680262355927355700,-0.0009448,-0.00020918,-0.00010863,0.197019,0.405118,-9.82335
1680262355937144300,0.000496134,-0.000734714,-0.000342005,0.189988,0.44839,-9.85068
1680262355947385000,0.000445848,0.000281114,0.000668055,0.177313,0.430303,-9.82732
1680262355956005200,0.00180103,-0.00070805,-0.000300849,0.169671,0.455523,-9.75203
1680262355968507200,0.000588319,-0.000152601,0.000879332,0.156031,0.437237,-9.84211
1680262355978182300,-0.000514531,-0.000861074,-0.000668355,0.159394,0.440812,-9.75341
1680262355987676600,-0.000273731,-0.00084785,-0.00113354,0.175882,0.420687,-9.8278
1680262355997375400,0.000161294,0.00241488,-0.0012818,0.166871,0.415079,-9.77678
1680262356006460400,0.000524854,-0.00159685,0.000708303,0.145767,0.41985,-9.80529
1680262356018597900,-8.19123e-05,-0.000362714,0.000835252,0.115061,0.392423,-9.79782
1680262356027443100,0.000248524,0.000428756,-0.0012941,0.192323,0.439696,-9.81076
1680262356037056200,0.000321921,-0.000128392,0.000749084,0.149101,0.436403,-9.78722
1680262356045760700,0.000590238,-0.000220727,0.000194624,0.177868,0.474929,-9.79597
1680262356054477000,0.000479495,0.000713912,-0.000139605,0.149275,0.405457,-9.79872
1680262356064177800,0.000715845,-0.000949137,-0.00147408,0.165171,0.388408,-9.80338
1680262356073286000,-0.00105352,0.000170763,0.000706283,0.183744,0.422319,-9.81394
1680262356085238600,-0.00186856,7.44433e-05,0.000960625,0.131058,0.403448,-9.82467
1680262356094040400,0.00179601,-0.000183087,-0.000352452,0.160284,0.393004,-9.78422
1680262356103675100,-0.000169934,5.49923e-05,0.000695313,0.184239,0.432488,-9.79232
1680262356112441000,0.000425235,0.000157671,2.78404e-05,0.105767,0.40528,-9.82031
1680262356123566800,0.000895178,0.000704146,0.00101782,0.209019,0.411647,-9.81891
1680262356133248600,-0.00159934,0.000857137,0.000197436,0.159222,0.445066,-9.77711
1680262356142278000,-0.000192107,-1.9564e-05,-0.000592964,0.191577,0.449404,-9.81864
1680262356152137000,0.00166727,0.000934577,0.00161859,0.158373,0.406359,-9.77497
1680262356160823900,0.00029248,-0.000265993,2.03869e-05,0.166169,0.397336,-9.78383
1680262356170473600,0.00159284,0.00158081,0.000924098,0.190991,0.431575,-9.79221
1680262356179322500,0.00218979,-7.58036e-05,4.02746e-05,0.157726,0.444291,-9.79459
1680262356188973500,-0.00200224,0.000450677,0.00104009,0.170181,0.385071,-9.79484
1680262356201971900,-3.56511e-05,0.000529729,6.95919e-05,0.155014,0.391098,-9.79261
1680262356211085000,0.00049503,-0.000846875,-0.000918054,0.207995,0.42176,-9.80474
1680262356221006200,-0.000721564,-0.000657564,0.00119827,0.157775,0.431211,-9.85734
1680262356230704900,0.000585513,-0.00017896,0.00106246,0.148788,0.413995,-9.81076
1680262356239480700,4.5239e-05,0.00139902,-0.00192243,0.115606,0.398111,-9.77659
1680262356251932300,0.000129752,-0.000914479,-0.000258444,0.149966,0.401583,-9.78735
1680262356260786700,-0.00101954,-0.000931602,0.000191597,0.207166,0.406644,-9.82117
1680262356270237600,-0.00319695,-0.00101497,3.95183e-05,0.16274,0.428008,-9.81515
1680262356279034100,5.7624e-05,0.00076068,-0.00212384,0.170822,0.414354,-9.86064
1680262356288131300,0.000539779,-0.000839077,-0.000916691,0.181283,0.437133,-9.76253
1680262356297768600,-7.43449e-05,0.00058015,0.000840492,0.177224,0.3817,-9.7806
1680262356306384800,0.000621691,-0.000841743,-0.00049231,0.131004,0.425379,-9.27703
1680262356318614100,-0.000284756,0.000298917,-0.00116623,0.18046,0.421026,-9.83176
1680262356327327600,0.00158377,-0.000333346,-0.000805338,0.196774,0.402197,-9.91724
1680262356337207100,0.000172491,-0.00177991,-5.39386e-05,0.14851,0.408497,-9.35489
1680262356346088700,-0.000642596,0.000617952,-7.86383e-05,0.161168,0.432288,-10.3657
1680262356355105200,-0.00017429,-0.00055092,-0.000884786,0.160364,0.424059,-9.72269
1680262356368556000,-0.00112309,-0.00127526,0.000194971,0.181466,0.389606,-9.95422
1680262356378179700,-0.00101579,-0.00054559,-4.53356e-05,0.153343,0.379309,-9.83563
1680262356387755300,-0.000425163,0.000292423,0.000419361,0.142613,0.408361,-9.13735
1680262356399843400,0.000101135,-0.00151958,0.000322446,0.168115,0.438188,-10.5442
1680262356408751600,0.00169796,-0.000131606,-5.70056e-05,0.134096,0.381738,-9.71958
1680262356418716800,0.000121953,-0.000129157,-0.000692301,0.147663,0.472514,-9.52094
1680262356427417900,-0.000378782,-0.000721082,0.00126025,0.15552,0.45341,-10.3078
1680262356436983400,2.67223e-05,-6.39867e-05,0.000687578,0.137947,0.441937,-9.60929
1680262356446320400,-0.00013496,0.000867361,0.000131998,0.197469,0.383155,-9.96537
1680262356455620400,-0.00177631,-0.0003307,-0.00115101,0.152817,0.452603,-9.67461
1680262356466953600,0.000235402,0.000366735,0.000514781,0.163351,0.420348,-9.85331
1680262356475691800,0.000174265,0.00157907,-0.000236118,0.165915,0.409546,-9.68573
1680262356485530200,-0.00103127,0.00165131,0.000155619,0.174586,0.425133,-9.49879
1680262356494267000,-0.00105633,-0.000659077,-0.000367171,0.183282,0.469155,-10.2183
1680262356504011500,0.000682332,-0.00101204,0.000511729,0.224309,0.378617,-9.643
1680262356512849600,-0.00164174,0.000559382,0.000789221,0.17635,0.39222,-9.91578
1680262356521768800,-0.000490515,0.000618306,0.00171129,0.16671,0.4471,-9.66855
1680262356535201300,-0.000956686,-0.000104706,-0.000125816,0.159597,0.432877,-9.9408
1680262356543958500,0.000280658,0.000363483,-0.000659535,0.135288,0.459982,-9.68832
1680262356553713900,0.000782361,-0.000733393,5.61898e-05,0.214748,0.418213,-9.10001
1680262356562699300,7.58171e-05,0.00130699,0.000142358,0.158943,0.413637,-10.5634
1680262356571534700,0.00104779,0.000392559,-0.000992851,0.183255,0.382102,-9.67678
1680262356585168800,0.00131535,-0.000362086,-0.000749254,0.207026,0.43941,-9.89438
1680262356594031900,-0.000339241,-0.000961205,-2.38635e-05,0.125267,0.449571,-9.79226
1680262356603752600,0.000919647,-0.00131773,-0.000467285,0.119684,0.407389,-9.01059
1680262356612658800,0.00128114,1.90845e-05,-0.000966079,0.174134,0.442187,-10.6345
1680262356621471800,0.000352682,-0.000856774,0.000452951,0.15027,0.445292,-9.6858
1680262356635148100,0.000239289,0.000522989,-0.000160807,0.152233,0.391735,-9.90675
1680262356644042700,0.000940023,0.000883414,0.00123914,0.194797,0.412676,-9.76219
1680262356653623300,0.000798611,4.63957e-05,0.000265976,0.174728,0.477315,-9.02351
1680262356662293300,0.000399878,-0.000169843,-0.000117922,0.120632,0.450559,-10.604
1680262356670973700,-2.99794e-05,0.000647695,0.000265849,0.108507,0.427548,-9.65983
1680262356680615800,-0.00127369,-4.15212e-05,0.000569874,0.201612,0.411016,-9.8771
1680262356689316800,0.000703166,-0.000573148,0.000995633,0.196526,0.412645,-9.76477
1680262356701821200,0.00017531,0.000688272,0.00091693,0.19084,0.423654,-9.64613
1680262356710554900,0.00162024,-5.46323e-05,0.000267832,0.135441,0.43644,-9.63392
1680262356720227700,-0.0007709,0.000435244,-9.71033e-05,0.172779,0.46396,-9.78832
1680262356729197900,0.000976697,0.000425442,-0.00052989,0.186143,0.411947,-9.79357
1680262356737792600,0.000929197,0.000343364,0.000317116,0.151564,0.371506,-9.76853
1680262356747355900,-0.00131866,-0.000984471,-0.00312835,0.16117,0.379547,-9.81608
1680262356756298100,-0.000561106,-0.000448688,0.000507196,0.125305,0.469358,-9.81229
1680262356768559100,0.000186695,0.000175244,-0.00191117,0.16855,0.407013,-9.83415
1680262356777267400,0.00091189,0.00135077,-0.00150843,0.143206,0.371201,-9.44213
1680262356787021400,-0.000204489,-0.000409208,-0.000748954,0.178731,0.388244,-9.41527
1680262356795877800,-0.000222105,-0.00079404,0.000747702,0.16032,0.389201,-10.4515
1680262356804561800,0.000279346,0.00210857,9.93936e-05,0.142454,0.407426,-9.75429
1680262356819209600,-0.000137043,1.18753e-05,-0.000857771,0.149794,0.427505,-9.93591
1680262356828358300,0.000273148,-0.000407531,-0.000134751,0.162851,0.418516,-9.84339
1680262356837814100,-0.000449956,-0.000581328,-0.000183416,0.18554,0.407166,-9.07443
1680262356847577400,-0.00150496,0.00047473,-0.000495641,0.180545,0.421259,-10.6512
1680262356856522600,0.000455009,0.000565447,-4.70763e-05,0.139467,0.422529,-9.89461
1680262356868557600,-0.00090121,0.0011326,0.000884394,0.164246,0.400738,-9.7567
1680262356877171700,-0.000176746,0.000417344,-0.000102494,0.129066,0.409808,-9.86413
1680262356887166400,-0.00107424,0.00046329,-0.000557769,0.153844,0.438808,-9.30498
1680262356897025700,0.00058838,0.000759971,-0.000546548,0.129996,0.456202,-10.3413
1680262356905694900,-0.00203646,-0.000556668,-0.000771454,0.162492,0.440542,-9.67427
1680262356918460700,-0.000907844,-0.000261192,0.000811622,0.177022,0.404951,-9.71082
1680262356927809800,-0.000841337,-3.39904e-05,0.00081801,0.150533,0.412069,-10.0047
1680262356937410800,-3.41136e-05,0.00103602,-0.000899703,0.170057,0.444783,-9.17937
1680262356946062800,-0.000768323,-0.000896371,8.05383e-05,0.180338,0.416006,-10.4136
1680262356955046500,-0.00133861,4.11341e-05,0.000508993,0.20305,0.427185,-9.74753
1680262356968491900,-0.000412089,-0.000721654,-0.000563889,0.189794,0.428708,-9.88951
1680262356977073600,0.00123594,0.000115128,-0.000181533,0.159293,0.407783,-9.8036
1680262356986969200,-0.000447859,0.000611345,-0.000289189,0.171365,0.44294,-8.9833
1680262356995978500,0.000377747,-0.0015727,0.00130707,0.15183,0.457804,-10.6308
1680262357004617900,-0.00123224,0.000775706,0.00100545,0.187019,0.436933,-9.6685
1680262357018578300,0.000736232,0.000117891,-0.000385282,0.138696,0.410239,-9.80429
1680262357027581600,0.00117293,0.00152611,-0.00105133,0.172622,0.396835,-9.79197
1680262357037173100,0.000983724,-0.00174156,-0.000531242,0.158049,0.431103,-8.93225
1680262357046047500,0.00170032,0.00264393,0.000758482,0.202382,0.369214,-10.6574
1680262357055047100,-0.000456677,-0.00163313,-0.000785149,0.19317,0.393721,-9.70922
1680262357068539700,0.000252008,-0.00111658,0.000447701,0.15942,0.41643,-9.8733
1680262357077334500,-0.000893681,-0.000701641,4.32538e-05,0.123096,0.413102,-9.78062
1680262357086979100,0.000341385,-0.000242107,0.000224214,0.205619,0.414519,-9.00788
1680262357095814800,0.000628573,-0.00240362,0.000310323,0.125557,0.39922,-10.6408
1680262357104383600,-0.000129643,0.000472059,-0.00179114,0.169573,0.397306,-9.67882
1680262357114019900,0.000435611,0.00115916,0.000302262,0.173559,0.423452,-9.8831
1680262357123401000,0.000442296,0.000839522,-0.000555417,0.18275,0.416917,-9.74366
1680262357135220700,-0.00125252,-0.000204922,8.69455e-05,0.187774,0.409877,-9.65212
1680262357143937300,0.000224891,-0.000171099,-4.23783e-05,0.162676,0.392535,-9.86352
1680262357153506300,0.000172993,-0.000455866,-0.000502327,0.175104,0.481216,-9.23723
1680262357162307500,0.000646917,0.000921141,-0.000396804,0.156326,0.433363,-10.3582
1680262357171001900,-0.000167131,-0.00146993,0.000491569,0.159873,0.440387,-9.63005
1680262357180725200,0.000716866,0.000969962,0.000198682,0.232916,0.427819,-9.67629
1680262357189448700,0.000182259,0.000771331,-0.00240882,0.112665,0.350563,-9.8372
1680262357201892100,-0.00217794,0.000940996,0.000945732,0.194085,0.421593,-9.71774
1680262357210595700,-5.71053e-05,-0.000745166,-0.000882289,0.119931,0.436057,-9.9161
1680262357220157600,-0.00101906,-0.000929359,-0.00129499,0.158302,0.420031,-9.26869
1680262357229007900,0.00120708,-0.00105929,-0.000193821,0.246578,0.418249,-10.4137
1680262357237865900,-0.000649568,4.7789e-05,-0.000527072,5.20678,-0.0680626,-9.65973
1680262357247709500,0.000323258,0.000827936,0.000573435,4.44546,0.323799,-9.90645
1680262357256543200,0.000416516,-0.00126741,-0.000256119,3.80301,0.367208,-9.7232
1680262357268587900,-0.000482247,0.000523272,0.000296695,4.26027,0.426211,-9.66452
1680262357277362100,0.000954657,0.00129058,0.00112659,2.72043,0.434363,-9.88485
1680262357287013700,-0.00055988,0.000899127,-0.00217453,4.4304,0.369881,-9.33972
1680262357295783600,-0.000179311,-0.000581062,0.000403148,2.84161,0.457468,-10.314
1680262357304728200,0.00131827,-0.000160373,-0.000604567,3.11815,0.402607,-9.67122
1680262357314354600,0.000234236,0.00265411,-3.4952e-05,2.54114,0.403701,-9.89614
1680262357323085400,0.00163978,0.00024805,-0.00104502,2.30127,0.424304,-9.7528
1680262357335294200,0.000886771,0.000944667,-0.0010621,2.41903,0.396797,-9.68909
1680262357343978300,0.00169022,0.000332177,0.000535084,1.53884,0.410407,-9.90184
1680262357353612900,0.00202873,-0.000982276,-0.00115585,2.44005,0.333858,-9.31115
1680262357362355100,0.00392739,0.00216042,-0.001901,1.53751,0.476471,-10.2675
1680262357371257200,0.00144598,0.0019812,0.00112013,1.67963,0.395379,-9.7294
1680262357381328300,0.00149645,0.00104656,-0.000501873,1.32057,0.44235,-9.93763
1680262357391512900,0.00204048,0.000238208,-0.001283,1.19228,0.415807,-9.72816
1680262357403508100,-0.000257216,0.00188512,-0.000807724,4.08964,0.373356,-9.64818
1680262357412432600,0.00151139,0.000403733,0.00145809,-1.17537,0.360703,-9.86193
1680262357421004500,-0.00123796,0.000954586,-0.00154396,-1.92762,0.236193,-9.20757
1680262357430650200,-0.0016206,9.31369e-05,0.000814014,-1.46995,0.502883,-10.5959
1680262357439550600,-3.85466e-05,0.000411523,-0.000433535,-0.443369,0.427807,-9.82463
1680262357451918100,0.00195881,3.93227e-05,-0.0195641,0.169867,0.427304,-9.66303
1680262357460874100,0.000339412,0.00125299,0.0032078,0.701135,0.466863,-9.86044
1680262357471027100,-0.000643928,0.000613962,0.0295586,-0.346365,0.256133,-9.20492
1680262357480888500,0.000236155,6.33069e-05,0.012589,0.523722,0.539892,-10.3486
1680262357489704900,0.000965572,1.07449e-05,0.00513973,2.04609,0.408178,-9.64256
1680262357502009100,0.00135209,0.0013995,0.0256281,1.16825,0.376809,-9.83037
1680262357510991400,-0.000512729,0.000378987,-0.00457768,1.83346,0.443307,-9.87859
1680262357520512500,0.000386969,0.00216185,-0.000303755,-0.412072,0.316853,-9.32648
1680262357529231100,-0.000243637,0.00121171,-0.0112476,1.16103,0.476403,-10.303
1680262357537988600,0.00196841,0.00128336,0.00285294,3.44239,0.46734,-9.71302
1680262357551855700,0.000246888,0.00229174,0.0244502,2.39469,0.365902,-9.88155
1680262357560575100,0.000211534,-0.00024382,0.00535529,2.18559,0.407581,-9.81028
1680262357570219400,2.54122e-05,0.00273146,-0.00560286,0.401885,0.284942,-8.93748
1680262357579036900,0.00162595,0.00167166,-0.00256764,3.05445,0.501283,-10.7254
1680262357587781500,-0.000563879,0.00329534,-0.00239877,6.99589,0.43,-9.62532
1680262357597368400,0.000402611,0.00199375,-0.000709027,3.22309,0.424161,-9.83642
1680262357605997700,0.000464384,0.0020949,0.00225252,4.32791,0.419758,-9.7996
1680262357618532700,0.00173024,0.00306898,0.0013779,4.00935,0.427265,-9.63637
1680262357627219500,-3.80387e-05,0.00229627,-0.00142346,3.50572,0.419132,-9.84731
1680262357637003800,0.00106818,0.00343286,-0.00322304,3.71168,0.350588,-9.2244
1680262357645915900,-0.00116858,0.00405129,0.000623458,4.30596,0.457188,-10.3472
1680262357654789900,0.00128733,0.00294674,0.00212318,6.14931,0.436081,-9.64319
1680262357664452900,0.00133377,0.00329913,-0.00091821,4.90126,0.404762,-9.94606
1680262357673327700,-0.00199301,0.00254768,-0.00046467,4.75802,0.430142,-9.74547
1680262357685177600,0.00147545,0.00318698,-0.00152966,5.16101,0.405793,-9.74832
1680262357693916600,-0.00159306,0.0019588,-0.00129452,3.54251,0.379717,-9.84525
1680262357703505100,-0.000286303,0.0039633,0.000116395,5.97064,0.351957,-9.3048
1680262357712294200,0.00163773,0.00316622,-0.000839293,4.13377,0.457558,-10.2183
1680262357720995500,-0.00131706,0.00461039,0.00119363,4.67233,0.389797,-9.66819
1680262357730547300,0.000236138,0.00423939,-0.00125195,4.33259,0.453163,-9.90562
1680262357739323600,-0.000146044,0.00567806,0.000524514,3.92111,0.41351,-9.81319
1680262357751870000,-0.00076905,0.00540498,0.000318821,4.49088,0.392721,-9.65642
1680262357760630700,-0.00062864,0.0029333,-0.00133495,2.93963,0.400689,-9.85611
1680262357770261200,-0.00130846,0.00518827,0.000364471,5.74095,0.339362,-9.18957
1680262357779064800,0.000520685,0.00409189,-0.00110973,3.80843,0.481265,-10.4146
1680262357787957400,0.000249369,0.00612697,0.00192437,4.3528,0.418213,-9.69278
1680262357797433700,0.00185681,0.00517645,-0.00109631,3.94366,0.44779,-9.91751
1680262357806273900,0.000946001,0.00489407,-0.00182238,3.70925,0.416692,-9.76688
1680262357818638500,0.00220425,0.00582228,0.000786373,4.23198,0.411429,-9.68836
1680262357827328600,-0.00144496,0.00220656,-0.000106906,2.87782,0.418896,-9.8629
1680262357836892500,0.0030101,0.00534934,-7.9427e-05,5.25123,0.387478,-9.33377
1680262357845657400,0.0012112,0.00298172,-0.00136218,3.5843,0.452749,-10.3278
1680262357854533800,0.00403344,0.00339485,-0.00171178,3.96772,0.381508,-9.70437
1680262357864438500,0.0046842,0.00564655,-0.00161202,3.52577,0.467318,-9.8984
1680262357873316700,0.00353358,0.00494635,-0.00104812,2.98199,0.410704,-9.79568
1680262357885222300,0.0044483,0.00584806,-0.00141431,3.39861,0.422715,-9.6449
1680262357893984600,0.00166478,0.00277476,-0.000586193,2.15311,0.393921,-9.90161
1680262357903486100,0.00455639,0.00276176,-0.000146962,3.20774,0.370566,-9.34767
1680262357912154000,0.00199209,0.00361669,0.000323493,1.96146,0.429244,-10.2319
1680262357920935500,0.00359721,0.00214682,-0.00102062,1.8118,0.429312,-9.72585
1680262357930483700,0.00506406,0.00411438,-0.00224494,0.680479,0.450923,-9.93315
1680262357939108100,0.00505656,0.00288965,0.000282793,0.50576,0.41543,-9.7228
1680262357951899300,0.00461093,0.00219085,-0.0014907,0.337507,0.383724,-9.75388
1680262357960663900,0.00214637,0.0033179,0.000713093,0.140844,0.404369,-9.86901
1680262357970438400,0.00568873,0.0017923,-0.000707574,-0.156911,0.385005,-9.12599
1680262357979037300,0.00273991,0.00345958,-0.000458376,-0.238202,0.436412,-10.465
1680262357987971300,0.00528916,0.00393263,0.000408824,-0.459481,0.414309,-9.65736
1680262357997572900,0.00404531,0.00113638,-2.48134e-05,-0.514663,0.428145,-9.94402
1680262358006240200,0.00207856,0.00332189,-3.98118e-05,-0.656618,0.437624,-9.708
1680262358018602400,0.00366949,0.000786014,0.00141177,-0.841688,0.419102,-9.75289
1680262358027448000,0.00174326,0.00140712,0.000406006,-0.605329,0.418163,-9.9027
1680262358037054900,0.00666447,0.00360803,-5.68477e-05,-1.4394,0.407609,-9.24051
1680262358045895900,0.00429285,0.00250578,-0.000549565,-0.970138,0.42132,-10.3099
1680262358054752800,0.00484136,0.00186524,0.000619193,-1.24801,0.407463,-9.66183
1680262358064393000,0.00210246,0.00131592,-0.000408573,-1.25458,0.447016,-9.91195
1680262358073460400,0.00158319,-0.000347209,0.00183913,-1.16335,0.376132,-9.76942
1680262358085535400,0.00312491,0.0018117,0.000886298,-1.43269,0.431993,-9.66648
1680262358094345000,0.00335766,0.00169616,0.000702795,-0.973668,0.441653,-9.8022
1680262358104045000,0.00524209,0.00318354,0.0007052,-2.01725,0.391788,-9.3992
1680262358112882600,0.00304633,0.0023145,0.000437217,-1.3628,0.421341,-10.2649
1680262358121720900,0.00274195,0.00295694,-0.000362431,-1.73138,0.424928,-9.66903
1680262358135185800,0.00330868,0.00356826,-0.000234185,-1.57149,0.432571,-9.9266
1680262358144038100,0.00269535,0.00250197,0.000652523,-1.01206,0.3698,-9.76244
1680262358153686600,0.0050829,0.000886334,-0.000567706,-2.56828,0.372214,-9.04716
1680262358162355200,0.00203082,0.00287948,0.000432728,-1.52529,0.442308,-10.5901
1680262358170951300,0.0029165,0.00264277,-2.06319e-05,-1.89474,0.381842,-9.69381
1680262358179607300,0.00411842,0.00266432,0.00176206,-1.71534,0.378316,-9.82306
1680262358188514300,0.00563212,-1.28464e-05,-0.000890154,-1.7317,0.396687,-9.76527
1680262358201807400,0.004445,0.00201108,-7.67873e-05,-1.6934,0.448785,-9.77904
1680262358210625700,0.00125035,0.00225934,0.000290197,-1.03936,0.414537,-9.76072
1680262358220328600,0.00363607,0.00354083,-0.00058653,-2.75257,0.325491,-9.02312
1680262358229064100,0.00224773,0.00288024,0.000114522,-1.52101,0.447586,-10.601
1680262358237673600,0.00181953,0.00181839,0.000620064,-1.90722,0.408333,-9.67519
1680262358247637700,0.00249488,0.00276348,-0.000218627,-1.73563,0.409471,-9.9172
1680262358256075000,0.00220784,-0.00025412,-0.000685253,-1.57706,0.418886,-9.78127
1680262358268541100,0.000671346,-0.00254807,0.00130853,-1.86135,0.382641,-9.57026
1680262358277944600,0.0015039,0.000104487,-0.00183232,-1.17244,0.38486,-9.85823
1680262358287616700,0.000891119,-0.00634244,-0.000537085,-2.34404,0.374663,-9.26759
1680262358297248500,0.000271633,-0.00592833,0.00178446,-3.62899,0.406774,-10.2995
1680262358305820900,-9.93359e-05,-0.00682516,0.00112745,-3.49029,0.404782,-9.75288
1680262358318455500,-0.000784452,-0.00647052,0.000184694,-3.52108,0.412634,-9.84798
1680262358327182700,0.00046649,-0.00483663,0.000485554,-1.90824,0.404428,-9.81743
1680262358336765700,6.75973e-05,-0.00875578,0.000800554,-3.68783,0.311302,-9.14112
1680262358345311100,-0.00107542,-0.00558991,-0.000439403,-1.90624,0.449492,-10.4508
1680262358354247400,0.000896633,-0.00917141,0.00101943,-2.1033,0.468418,-9.68843
1680262358363984200,0.00173532,-0.0074064,0.000569487,-1.23799,0.457356,-9.86426
1680262358372635900,-0.00152686,-0.0058151,0.000244764,-1.15669,0.359673,-9.72676
1680262358385139300,-0.000349585,-0.00870909,0.0001926,-0.606222,0.376423,-9.7234
1680262358396413200,-0.000287681,-0.00417381,0.00092189,-0.583057,0.422961,-9.8653
1680262358405089800,-0.00125027,-0.00847559,-0.00103208,-0.235569,0.307897,-9.38478
1680262358418449100,-0.000143473,-0.0116657,-0.00229448,-1.14925,0.371661,-10.1079
1680262358427055200,0.00101732,-0.00640548,-0.000325499,0.731205,0.40319,-9.96838
1680262358436628400,0.000164755,-0.0131585,-6.89629e-05,-0.069724,0.362614,-9.00999
1680262358445140000,-0.00135348,-0.00829607,-3.40582e-05,1.89284,0.468604,-10.589
1680262358454125400,-0.000446342,-0.00824853,-0.00248027,2.34102,0.437577,-9.56484
1680262358462704500,-0.000123303,-0.00764657,-0.00142561,2.41963,0.429292,-9.86567
1680262358471371700,-0.00204171,-0.011669,7.41803e-05,2.68649,0.40245,-9.72906
1680262358485524300,-0.000882456,-0.00925997,0.0002216,2.75013,0.435229,-9.74679
1680262358494403800,-0.000751445,-0.00668367,-0.00104322,1.81465,0.392813,-9.78439
1680262358503854200,-0.00194654,-0.0145646,-0.00132493,4.57236,0.294406,-8.83891
1680262358512542300,0.00133007,-0.00893178,0.00149125,2.94509,0.426168,-10.7097
1680262358521216400,-6.21617e-05,-0.0107616,-0.000195995,3.44971,0.449117,-9.70243
1680262358535256000,-0.00012468,-0.00978937,-0.00113331,3.29505,0.379124,-9.84709
1680262358544207700,0.00112243,-0.00454976,-0.000798417,2.08124,0.377595,-9.8135
1680262358553682600,0.00092526,-0.0152032,-0.000514383,5.06912,0.28398,-8.91521
1680262358562125000,-0.00191218,-0.0087925,-0.00106179,3.34164,0.381437,-10.7047
1680262358570897900,-0.000707758,-0.0104065,-7.54035e-05,3.85727,0.406027,-9.73285
1680262358579477500,0.00141694,-0.0101201,-0.00235241,3.35763,0.393982,-9.82061
1680262358588093900,0.000196108,-0.0119112,0.000142378,3.62291,0.371676,-9.7381
1680262358601793900,-0.000349632,-0.0119902,-0.00110352,3.46305,0.395163,-9.79165
1680262358610535700,-0.00109661,-0.00556502,8.34776e-05,2.28414,0.35763,-9.77889
1680262358620058200,-0.000737631,-0.018468,-0.00158837,5.45572,0.354725,-8.96384
1680262358628558000,0.000631068,-0.0110435,-0.00151696,3.36029,0.418469,-10.6236
1680262358637373600,0.000923053,-0.0147608,-0.00214879,3.95251,0.375452,-9.63723
1680262358645910900,0.00245653,-0.0118776,0.00132123,3.59601,0.442104,-9.88704
1680262358654501300,-0.00126812,-0.0117835,-0.000716064,3.78254,0.416639,-9.7548
1680262358668507200,0.000642917,-0.0122971,-0.000463814,3.62308,0.385699,-9.81254
1680262358677191900,0.000578255,-0.00694377,-0.000127534,2.28203,0.370008,-9.75038
1680262358687073500,-4.38174e-05,-0.0199157,-0.00236035,5.755,0.32134,-8.94489
1680262358695672800,-0.000248996,-0.0114632,-0.000909334,3.35753,0.407188,-10.6518
1680262358704710000,0.00129089,-0.0136463,-0.00179155,4.09199,0.398826,-9.62689
1680262358714230100,0.000447737,-0.0117703,0.000734646,3.57709,0.38523,-9.89056
1680262358722972400,-0.000365456,-0.0117289,-0.00043862,3.59087,0.420901,-9.75379
1680262358735192800,-0.000655843,-0.0149182,-0.00106368,4.01517,0.392054,-9.74588
1680262358743892500,-0.000888169,-0.00962854,-0.00188364,2.69921,0.422029,-9.88623
1680262358753586000,0.00119205,-0.0192702,-0.0020896,5.08199,0.365837,-9.25037
1680262358762477600,0.000390522,-0.0133575,-0.00187282,3.45977,0.385045,-10.359
1680262358771883200,-0.00152761,-0.0143377,-0.002102,3.96536,0.405568,-9.67528
1680262358781964200,0.000691347,-0.0153528,-0.00111628,3.57594,0.401176,-9.80432
1680262358790347700,-6.82616e-05,-0.012015,-0.00128202,3.51268,0.397043,-9.73009
1680262358802502800,-8.33678e-05,-0.0176419,-0.00188673,4.2355,0.386699,-9.71201
1680262358811714300,0.00119163,-0.0114826,-0.000182561,2.83083,0.370387,-9.87948
1680262358821068600,-0.00220743,-0.0176999,-0.00096863,4.34232,0.371697,-9.43493
1680262358830583200,0.000779402,-0.0150976,-0.000970007,3.91618,0.393013,-10.1028
1680262358839401500,0.000724428,-0.0151663,-0.00152936,3.5708,0.376083,-9.90259
1680262358851960400,-0.000325827,-0.0163284,-0.00146831,3.91816,0.355152,-9.72648
1680262358860878500,-0.00182929,-0.0124752,-0.000283024,2.63383,0.399222,-9.86171
1680262358870328200,0.000988752,-0.0231784,-0.00262641,5.0376,0.338806,-9.23449
1680262358879290900,-0.00113171,-0.0110024,-0.000353092,3.43912,0.406621,-10.1724
1680262358887721000,-0.00100227,-0.0111903,-0.000106571,3.89881,0.388863,-9.54957
1680262358897521900,-0.000975611,-0.00835008,-0.00177944,3.75762,0.371,-9.76481
1680262358906546200,-0.000892015,-0.00450145,-0.000230396,3.27578,0.402001,-9.70061
1680262358918544300,0.000487805,-0.00561426,-0.00105191,3.73876,0.396307,-9.56893
1680262358927359800,6.72511e-05,-0.00129656,-0.00131283,2.76204,0.411952,-9.80515
1680262358936893000,0.00225857,-0.00354609,-0.0019719,4.56974,0.36758,-9.39677
1680262358946072800,-0.000667003,-0.00179464,-0.00096743,3.0554,0.412343,-10.2181
1680262358954432500,0.000343597,-0.00122011,-0.00177108,3.3587,0.410052,-9.68506
1680262358964030300,-0.000682336,0.000314925,-0.00221837,2.83145,0.417528,-9.85284
1680262358972692800,-0.00069609,0.000111238,-0.000197419,2.45064,0.429073,-9.70046
1680262358985182400,0.000884822,-0.000594995,-0.00117172,2.59934,0.414063,-9.71514
1680262358993897600,0.00130473,0.000575081,-0.000225747,1.47642,0.43615,-9.84133
1680262359003429500,0.00107931,0.00173414,-0.00153012,2.21463,0.331132,-9.21504
1680262359012013700,-0.000893669,0.00149352,-0.000131532,0.895247,0.395617,-10.3541
1680262359021660300,-0.00132303,0.00162353,0.000182202,0.678257,0.426801,-9.63286
1680262359031301000,0.00192925,0.00282465,0.00074573,0.279346,0.427307,-9.93883
1680262359039990400,-0.0011577,0.00206959,0.000427956,0.023055,0.411439,-9.60902
1680262359051954800,-0.000603,0.00181795,0.000159745,-0.293933,0.390856,-9.76002
1680262359060767300,0.000118158,0.000796953,-0.000385652,-0.377562,0.369829,-9.89523
1680262359070215400,0.000952638,0.00180025,-0.00148783,-1.03726,0.364107,-9.27383
1680262359078827700,-0.00105336,0.00246318,-5.98307e-05,-0.971494,0.376873,-10.2484
1680262359087774400,-0.000261451,0.00310505,-0.000292277,-1.32644,0.397861,-9.69953
1680262359097507200,-0.000362548,0.00338333,-0.0030046,-1.30809,0.372881,-9.9465
1680262359106364300,0.000470413,6.60353e-05,0.000322968,-1.40663,0.422047,-9.70555
1680262359118562700,0.000334784,0.00300683,0.000653719,-1.7698,0.436838,-9.64014
1680262359127337000,-0.00236321,0.00126126,0.00135903,-1.33207,0.362201,-9.84873
1680262359136864300,0.000126227,0.00226839,0.00106877,-2.65874,0.334397,-9.33256
1680262359145434000,0.000504043,0.000748994,0.000813428,-1.88976,0.415249,-10.3937
1680262359154639700,-0.000779347,0.00120065,-0.000315372,-2.37003,0.433286,-9.60808
1680262359164250300,0.000682991,0.0021336,0.000362835,-2.04927,0.383175,-9.92087
1680262359172936800,0.000281729,0.00166467,-0.00056296,-2.20332,0.408821,-9.72078
1680262359185240800,0.00051388,0.00119146,-0.000579171,-2.63702,0.412257,-9.73279
1680262359194095000,0.000958097,0.000412128,-0.000687164,-1.67672,0.402284,-9.95253
1680262359203718200,3.18034e-05,0.00262231,0.000804346,-3.46906,0.342231,-9.19351
1680262359212007200,0.000992788,-0.000360041,6.98394e-05,-2.44158,0.397028,-10.4468
1680262359220793800,-0.000480782,0.000861611,-0.000801636,-2.88089,0.400657,-9.65003
1680262359229365000,-0.000672077,0.000632316,-0.000700264,-2.59776,0.410805,-9.92216
1680262359237869700,-0.00220489,0.00216055,-0.00047607,-2.76446,0.406434,-9.74646
1680262359251775200,0.000702074,0.00183984,0.00124581,-2.7139,0.42378,-9.79767
1680262359260448900,-0.000936067,0.000318208,-1.94469e-05,-1.65592,0.408898,-9.79831
1680262359269876800,-0.00223143,0.000776758,-0.000263219,-4.45402,0.398796,-8.91176
1680262359278319500,-0.0014481,0.0014393,0.00126484,-2.63937,0.414679,-10.733
1680262359287614500,-0.000241707,0.00150641,0.000759952,-3.10453,0.399708,-9.61453
1680262359297233000,-0.00197236,-0.000358568,-0.000410087,-2.59472,0.428885,-9.94783
1680262359306008800,0.000806981,0.000899131,-5.05891e-05,-2.67037,0.370721,-9.68343
1680262359318855400,-1.69111e-06,0.0015442,-0.000139109,-3.08631,0.457309,-9.74589
1680262359327686700,0.000494487,0.000121959,0.000260582,-1.89229,0.417751,-9.88238
1680262359337253700,-0.00203973,4.94079e-05,0.000580924,-4.0856,0.357576,-9.16731
1680262359345810400,0.00055565,0.000802349,0.000829701,-2.67876,0.424175,-10.4125
1680262359354469500,-0.00196486,0.000959117,0.000371267,-3.1166,0.42423,-9.69063
1680262359363944400,0.000506381,0.000134522,0.00021214,-2.79368,0.416253,-9.99358
1680262359372537600,-0.000401571,0.00112125,0.000810595,-2.52228,0.385692,-9.68915
1680262359385373900,0.00238482,-0.00054528,0.00110328,-3.04313,0.364237,-9.67922
1680262359396727800,0.000318693,0.000680975,0.000179673,-1.88089,0.4272,-9.86649
1680262359406625600,-0.000132275,0.000521185,5.37318e-05,-3.37515,0.395986,-9.23969
1680262359418686200,-3.39281e-06,0.000193509,0.000444903,-2.70057,0.419747,-10.1447
1680262359427405500,0.000754313,-0.000119844,0.000961795,-2.4726,0.425276,-9.82216
1680262359437191700,-8.55808e-05,-0.0145588,0.000810278,-3.54453,0.438882,-9.07658
1680262359445598700,0.0010371,-0.014333,0.000479587,-2.37234,0.456748,-9.99606
1680262359454211300,0.00171635,-0.0212695,1.27077e-05,-4.78925,0.385107,-9.38976
1680262359463784300,-0.00040532,-0.0228835,-0.000254603,-4.14222,0.429732,-9.68783
1680262359472345900,-0.00150091,-0.0231805,-0.00257429,-3.65106,0.394615,-9.60127
1680262359485171200,-0.00107087,-0.0306962,-0.00055775,-4.20843,0.389591,-9.49577
1680262359493814100,-0.000196012,-0.0214443,0.000675107,-2.40484,0.411708,-9.78979
1680262359503400700,-0.00132352,-0.0477223,-0.000184247,-4.84185,0.391671,-8.96189
1680262359512292700,0.00107511,-0.0317179,0.000249014,-2.75184,0.457548,-10.4003
1680262359521547800,0.00065361,-0.0377423,0.000973948,-2.81362,0.472508,-9.56799
1680262359531054700,-0.000787545,-0.0324881,-0.000511489,-2.23033,0.411619,-9.76763
1680262359539804600,0.00172361,-0.0352638,0.000773154,-1.93591,0.423478,-9.70126
1680262359551827500,0.000254849,-0.0412951,0.00106428,-1.75133,0.413506,-9.7005
1680262359560531600,0.000600357,-0.028041,0.000121232,-0.88882,0.405541,-9.85964
1680262359569943800,0.00101351,-0.0526082,0.000645773,-1.16623,0.362726,-9.22598
1680262359578454400,9.29137e-05,-0.0353111,0.0014468,-0.324614,0.43761,-10.2815
1680262359587857100,-0.000502247,-0.0446148,-0.000396945,0.0392765,0.449395,-9.66885
1680262359595812600,0.00180102,-0.0394651,-0.000985852,0.363211,0.45653,-9.86387
1680262359604412600,-0.000457327,-0.0415178,-0.00114157,0.744803,0.36404,-9.70168
1680262359618506300,0.000276691,-0.0412321,-0.00116241,1.06353,0.414393,-9.80889
1680262359627079300,-0.000105363,-0.0248042,-0.00020681,0.825943,0.394209,-9.71611
1680262359636580300,-0.00083682,-0.0676166,-6.55052e-05,2.63425,0.298909,-8.88204
1680262359645110400,-0.00101988,-0.0386593,0.00208055,1.80438,0.428502,-10.8078
1680262359654276200,-0.0010888,-0.0466745,-0.000344895,2.397,0.466706,-9.68559
1680262359663746900,0.00204115,-0.0410661,-0.000402344,2.17555,0.400546,-9.87446
1680262359672319900,0.000236023,-0.0418891,-0.000775908,2.31482,0.35655,-9.77514
1680262359685191400,-0.0011683,-0.0501535,-5.88544e-05,2.88947,0.386936,-9.65094
1680262359693885700,4.4459e-05,-0.0294701,0.000228419,1.862,0.411277,-9.84853
1680262359703391300,-0.00112235,-0.065833,-0.000480077,4.06988,0.342424,-9.09901
1680262359712061500,-0.00136036,-0.0423989,0.000467486,2.71842,0.452736,-10.5051
1680262359720876000,0.00314941,-0.0503136,-0.00173562,3.23034,0.429165,-9.76591
1680262359730534500,-0.00173531,-0.0467454,-0.00149729,2.98908,0.404644,-9.90263
1680262359739118800,0.000377765,-0.0424592,-0.000560415,2.83441,0.417822,-9.76976
1680262359751905300,0.000622106,-0.0506403,-0.00278195,3.49722,0.418173,-9.70823
1680262359760671700,0.000337794,-0.0337655,-0.00150342,2.19898,0.388155,-9.89906
1680262359770163400,0.000630892,-0.0698415,-0.00180628,4.65259,0.314632,-9.16615
1680262359778680100,0.000227093,-0.0465739,-9.89878e-05,3.10327,0.426142,-10.4055
1680262359788339600,0.00100781,-0.0527411,-0.00111638,3.62486,0.394025,-9.76991
1680262359798184600,0.00120655,-0.0447268,-0.00144631,2.98773,0.382962,-9.94966
1680262359807013700,0.00322884,-0.046266,-0.00153478,3.24768,0.451653,-9.77014
1680262359818721200,0.00357799,-0.0517864,-0.000566336,3.72005,0.436397,-9.82325
1680262359827605800,0.00389894,-0.0356927,-0.00278272,2.56462,0.458452,-9.97797
1680262359837109400,0.0097585,-0.061103,-0.0010924,4.29382,0.432778,-9.49232
1680262359845694000,0.00801801,-0.0444776,3.13354e-05,3.06855,0.447364,-10.2104
1680262359854441700,0.0118231,-0.0505446,-0.00298966,3.50765,0.457922,-9.75338
1680262359864374200,0.0105247,-0.0466242,-0.00109677,3.06718,0.393034,-9.99846
1680262359872985000,0.00868814,-0.0411669,-0.000855897,2.53154,0.417639,-9.82107
1680262359885322800,0.01216,-0.0500397,7.72476e-05,2.94462,0.440954,-9.69102
1680262359894150300,0.00773947,-0.0329982,0.00038302,1.73349,0.438175,-9.91759
1680262359903854000,0.0157686,-0.0644767,-0.00118983,2.91931,0.35923,-9.37377
1680262359912784000,0.0122393,-0.0426561,-0.00179108,1.5362,0.442038,-10.3501
1680262359921958800,0.0112478,-0.0503499,-0.00200542,1.4354,0.379771,-9.7412
1680262359935714100,0.0115649,-0.0471876,-0.000386563,0.532238,0.421527,-9.85949
1680262359944974700,0.00804421,-0.0305832,-0.000395981,0.15936,0.360224,-9.79476
1680262359954724500,0.0176509,-0.0526599,0.000686305,0.205128,0.350681,-8.63531
1680262359964878700,0.012292,-0.0280308,0.000652353,-0.187234,0.417317,-10.2691
1680262359974041300,0.0123355,-0.0191402,-0.000888529,-0.447755,0.370917,-9.44585
1680262359985486300,0.012572,-0.0164283,1.78374e-06,-0.719016,0.370046,-9.4279
1680262359994748500,0.00937236,-0.00632411,-0.00123342,-0.772999,0.363856,-9.68228
1680262360004245600,0.0150342,-0.00439205,0.00102478,-1.33738,0.381496,-9.22259
1680262360014262600,0.0112254,-0.00248682,0.00102934,-1.24232,0.42639,-9.92622
1680262360023985200,0.0126212,0.00110483,0.000198196,-1.35646,0.371593,-9.63133
1680262360035415300,0.0119214,0.00560788,0.000294794,-1.64302,0.418136,-9.53313
1680262360044667000,0.0087028,0.0046118,-0.00108256,-1.30326,0.335725,-9.83034
1680262360054823000,0.0161953,0.00920724,5.78861e-06,-2.31274,0.352724,-9.26678
1680262360065004300,0.00985967,0.00755127,0.00123911,-1.72831,0.391404,-10.1924
1680262360074043100,0.00937476,0.00995275,0.00161108,-1.98612,0.3869,-9.60096
1680262360085394800,0.0114196,0.0136432,0.00110286,-2.3046,0.344928,-9.68638
1680262360094499900,0.00788325,0.009755,0.000353033,-1.71652,0.342262,-9.88642
1680262360104601200,0.0150627,0.0151375,0.0011821,-2.63015,0.363877,-9.41832
1680262360114484000,0.00970465,0.0126891,0.000966186,-2.01518,0.402482,-10.1187
1680262360123184300,0.0101905,0.0130501,-0.000252673,-2.30296,0.342051,-9.64639
1680262360135363600,0.00737474,0.01829,0.000790149,-2.62989,0.360884,-9.92456
1680262360144331600,0.00378975,0.0124269,0.000359821,-1.71394,0.363464,-9.95537
1680262360153975200,0.00610173,0.0235574,0.00224425,-3.20134,0.302853,-9.36159
1680262360162639800,0.00192902,0.016646,0.00102772,-2.33665,0.395871,-10.2713
1680262360171447400,0.0013056,0.0195318,0.00125453,-2.73706,0.364053,-9.69622
1680262360185307300,0.00122208,0.0184524,0.000181402,-2.44246,0.348773,-9.98088
1680262360194118200,0.000718614,0.00897928,-0.000898714,-1.60421,0.344159,-9.80654
1680262360203826200,0.000485065,0.0283096,0.00167365,-3.81769,0.288113,-9.02651
1680262360212374200,-1.1233e-05,0.0174388,0.00246553,-2.38165,0.40778,-10.6622
1680262360221029700,-0.00137725,0.0188537,0.0010442,-2.7372,0.384635,-9.70099
1680262360230681800,0.000554382,0.0177969,0.00118536,-2.54011,0.36675,-9.97246
1680262360239272800,0.00189173,0.014267,-0.000387228,-2.23312,0.403724,-9.79812
1680262360251867700,0.00394796,0.0167697,0.00193749,-2.73472,0.426765,-9.74343
1680262360260608800,0.00303465,0.00927362,-0.00162161,-1.80419,0.402047,-9.86282
1680262360270174500,0.00652164,0.0194246,-0.000190449,-3.57217,0.382435,-9.32528
1680262360278817100,0.00416694,0.0126173,-0.000696331,-2.3313,0.461247,-10.4114
1680262360287682100,0.00670232,0.0133093,0.000888891,-2.65507,0.361293,-9.70261
1680262360297304600,0.00625998,0.0124776,-0.000645468,-2.4196,0.402316,-10.0066
1680262360306010100,0.00645157,0.00962151,0.00221033,-2.28589,0.383596,-9.73791
1680262360318633900,0.00888059,0.0102419,0.00134317,-2.67094,0.398695,-9.73618
1680262360327507900,0.0074582,0.00791041,-0.000580833,-1.73872,0.382343,-9.84515
1680262360337076800,0.00839296,0.0140287,0.00132067,-3.33637,0.366895,-9.25486
1680262360345918800,0.00420828,0.0084778,0.00171784,-2.27119,0.361469,-10.3686
1680262360355105300,0.0077523,0.00858422,-0.000688256,-2.62528,0.354318,-9.76332
1680262360368822600,0.00633996,0.00792511,-0.0004207,-2.26271,0.382328,-9.92249
1680262360377577700,0.00617253,0.00431388,0.00129331,-1.60634,0.393928,-9.70999
1680262360387296100,0.00773211,0.0120593,-0.00162083,-3.61262,0.308317,-9.07456
1680262360398613900,0.00507267,0.00802087,-0.00165465,-2.12027,0.395794,-10.667
1680262360407432000,0.00414261,0.00783536,0.00169351,-1.99707,0.387249,-9.71377
1680262360418654200,0.00922489,0.00961827,-0.000366476,-2.84004,0.359517,-9.50056
1680262360427436700,0.00404537,0.00535381,0.00123045,-1.77639,0.384511,-10.0937
1680262360437102700,0.00798911,0.00743222,0.0015802,-2.76906,0.338057,-9.42647
1680262360445795900,0.00425054,0.00545543,0.000122582,-2.05272,0.392699,-10.0579
1680262360454607800,0.00700492,0.00526905,-0.00119731,-2.33,0.373301,-9.68643
1680262360464254900,0.00526436,0.00652498,-0.000135306,-2.11653,0.338655,-9.85208
1680262360472965100,0.00438959,0.00492559,0.00131507,-1.98119,0.384253,-9.82617
1680262360485293100,0.00530696,0.00673404,-6.35132e-05,-2.29092,0.33482,-9.63946
1680262360494205600,0.00357599,0.00364005,-0.00048713,-1.49267,0.355238,-9.90902
1680262360503904400,0.00732966,0.00805037,0.00255956,-2.75143,0.312088,-9.3365
1680262360512742900,0.00453193,0.00570038,-0.00135723,-1.91213,0.350533,-10.3242
1680262360521491500,0.00592239,0.00437499,-0.00013506,-2.17415,0.313828,-9.64178
1680262360535294300,0.00542098,0.003487,0.000215595,-2.00526,0.341227,-9.93124
1680262360544270700,0.00253538,0.00397298,0.000296352,-1.26769,0.326506,-9.80374
1680262360554230800,0.00640658,0.00581851,-6.74955e-05,-2.94966,0.229881,-8.98328
1680262360564081200,0.00347531,0.00249569,0.00142479,-1.73592,0.370484,-10.6429
1680262360572851200,0.00399971,0.00538341,0.000419799,-1.90766,0.363551,-9.65117
1680262360585325600,0.00489181,0.00571097,-0.000243245,-2.04903,0.343207,-9.79132
1680262360594175700,0.00455871,0.00522761,-1.06936e-05,-1.34403,0.348276,-9.9017
1680262360603922900,0.00773238,0.00754199,0.00129195,-2.44048,0.352341,-9.25053
1680262360612729800,0.00378598,0.00327206,0.000440685,-1.61393,0.36776,-10.3873
1680262360621373200,0.0046868,0.00414392,-0.000523509,-1.93393,0.392761,-9.63437
1680262360635353800,0.00366037,0.00346139,0.000401307,-1.75146,0.354533,-9.84731
1680262360644243300,0.00484805,0.00307648,0.00290732,-1.09405,0.338675,-9.7593
1680262360653908500,0.00464234,0.00493357,0.00123305,-2.62365,0.25639,-8.96479
1680262360662712000,0.00399563,0.000887533,-0.000113761,-1.52812,0.42054,-10.6582
1680262360671513200,0.00369553,0.00486304,-0.000785284,-1.82155,0.382832,-9.73113
1680262360685362000,0.00454682,0.00441445,-0.00109755,-1.62263,0.383791,-9.90624
1680262360694236300,0.00116885,0.00381217,-0.00218246,-1.08557,0.322067,-9.72851
1680262360703915700,0.00502098,0.00534923,-0.000108044,-2.43748,0.26254,-8.96639
1680262360712741200,0.00382213,0.00280159,0.00126136,-1.43629,0.415415,-10.6573
1680262360721724900,0.00575271,0.00298248,0.000646618,-1.65509,0.353838,-9.65047
1680262360735520700,0.00484816,0.00418991,0.000122465,-1.46688,0.373211,-9.87686
1680262360744236500,0.00192141,0.00245883,-0.00086092,-0.970091,0.268613,-9.80048
1680262360753945500,0.0063069,0.00559501,0.000512749,-2.1898,0.279386,-9.03862
1680262360764042800,0.00506138,0.00219116,-0.000130675,-1.3053,0.387549,-10.5375
1680262360772978400,0.0034996,0.00247048,0.00124492,-1.3672,0.334732,-9.71531
1680262360785402300,0.00262896,0.00262615,0.000894343,-1.56353,0.354656,-9.73165
1680262360794309800,0.00035361,0.00290736,-0.000225248,-3.03344,0.334015,-9.91811
1680262360804214100,0.00147817,0.0037444,0.00116442,-4.06636,0.271436,-9.25273
1680262360812908600,0.00262007,0.00247851,-0.000127968,-3.45736,0.372169,-10.3211
1680262360821705700,0.00273436,0.00121858,0.00128661,-2.30351,0.300716,-9.62792
1680262360835326800,0.00129812,0.00177593,0.000561338,-2.88829,0.345624,-9.98712
1680262360844284600,0.000112129,0.000206935,0.00108834,-0.943852,0.338421,-9.79267
1680262360853995200,-0.00122844,-0.000113839,0.0211402,-4.76439,0.226624,-8.99519
1680262360863880800,-5.77336e-05,0.00106643,0.00338973,-0.824635,0.396322,-10.5671
1680262360872733200,-0.00155936,-0.00295453,0.00104753,-1.47691,0.373868,-9.59798
1680262360885300500,0.000328535,-0.00205889,0.00215918,-0.786671,0.341245,-9.72235
1680262360894688900,-0.000830598,-0.00436701,-0.000446207,-0.455177,0.341283,-9.83434
1680262360904416200,0.00163307,-0.00750628,0.000626741,-1.44614,0.272332,-9.22904
1680262360914121400,-0.000612283,-0.00847554,0.000223867,0.0842989,0.408779,-10.2251
1680262360923029100,0.00049516,-0.0081427,0.000750788,0.400049,0.333447,-9.77162
1680262360935290800,0.001199,-0.0104587,-0.000316057,1.28393,0.376826,-9.68185
1680262360944312200,-0.00250751,-0.00702089,-0.000810114,1.7039,0.399032,-9.78182
1680262360953788300,0.00126555,-0.0160433,-4.5343e-05,0.363436,0.278482,-9.2446
1680262360962693000,-0.0017386,-0.0117783,0.00445493,3.54562,0.678391,-10.2798
1680262360971912700,-0.000847012,-0.0141229,0.0175338,2.51141,0.977064,-9.59172
1680262360981659800,-9.35299e-05,-0.0130158,0.0239594,3.32606,0.908162,-9.93484
1680262360990509300,-0.00149534,-0.0128095,0.035146,2.31252,1.03186,-9.6488
1680262361002065700,0.000840444,-0.0165586,0.0547574,3.39537,1.1518,-9.66698
1680262361010915800,-0.000538008,-0.01213,0.0498878,2.4508,1.08525,-9.83665
1680262361020590900,-5.86052e-05,-0.0197326,0.105551,3.89065,1.40538,-9.33429
1680262361029803500,-3.51916e-05,-0.0142295,0.0921998,2.93229,1.38895,-10.1797
1680262361038134100,-0.00267161,-0.0193184,0.125805,5.28184,1.5716,-9.6078
1680262361051877200,0.000471858,-0.0195975,0.140364,4.32752,1.61632,-9.89506
1680262361060705300,0.000532839,-0.0124582,0.0961683,2.77045,1.13277,-9.79253
1680262361070761400,-0.00365595,-0.0302696,0.295057,6.26445,2.50441,-8.87433
1680262361080782800,-0.0016935,-0.0190708,0.181681,3.66101,1.6196,-10.5977
1680262361089394100,-0.00278467,-0.0221047,0.230526,3.80908,1.83988,-9.63429
1680262361101883600,-0.00444695,-0.0249329,0.293309,4.42394,2.17161,-9.78475
1680262361110726300,0.00073219,-0.0130673,0.194431,2.60752,1.52809,-9.90681
1680262361120279100,-0.0011542,-0.030997,0.433913,5.04456,2.7879,-9.17367
1680262361129063800,0.00032165,-0.0211779,0.315659,3.33755,2.05312,-10.4009
1680262361137712100,-0.00251514,-0.024721,0.397896,3.82016,2.37871,-9.65864
1680262361147603900,-0.0026812,-0.0225234,0.37257,3.23876,2.20389,-9.85801
1680262361156240600,-0.00353867,-0.0217091,0.372293,2.93611,2.07856,-9.71451
1680262361168768400,-0.00286201,-0.0259825,0.45607,4.02675,0.961343,-9.62542
1680262361177944700,-0.000924162,-0.0178425,0.28367,2.52552,0.250395,-9.83358
1680262361187561000,-0.000550176,-0.0344474,0.495235,4.66551,-0.8903,-9.26008
1680262361197269100,-0.00212336,-0.0254319,0.331662,3.09895,-0.745282,-10.3296
1680262361206172000,0.000426537,-0.0255933,0.302712,2.86081,-1.09294,-9.70965
1680262361218410900,-0.00210601,-0.0274859,0.289361,2.7523,-1.56161,-9.77127
1680262361226923800,-0.00132725,-0.0189262,0.171018,1.57011,-1.04444,-9.84283
1680262361236446300,0.00109495,-0.0388612,0.243062,2.36273,-2.93345,-9.20169
1680262361244572800,-0.00222199,-0.02493,0.122266,0.5446,-1.74266,-10.3801
1680262361254016900,-0.000653618,-0.0291236,0.0960508,0.405102,-2.42884,-9.68562
1680262361262390100,-0.00248249,-0.0218727,0.0479269,0.210157,-1.1339,-9.85379
1680262361270758900,-0.000191995,-0.0299008,0.0363179,0.0515421,-0.777899,-9.68959
1680262361285009200,-0.00149337,-0.0262288,0.0206332,-0.0903994,-0.148288,-9.88524
1680262361293461400,0.00148428,-0.0161242,0.00987021,-0.209656,0.146561,-9.85483
1680262361302750200,-0.00146606,-0.0438203,0.00885286,-0.636148,0.014858,-8.76067
1680262361311026500,0.000176307,-0.0244127,0.0040727,-0.543807,0.339111,-10.8308
1680262361320444200,0.00142957,-0.0306489,0.00312295,-0.765448,0.341977,-9.66193
1680262361328796200,0.00122949,-0.0223866,0.00133388,-0.68779,0.369724,-9.89813
1680262361337306900,-0.00142004,-0.0280329,0.000349396,-0.963569,0.360028,-9.67479
1680262361345699600,0.000435364,-0.0254064,0.000881535,-0.95459,0.351006,-9.91165
1680262361354114100,-0.00026187,-0.0269107,-0.00033171,-1.05463,0.335064,-9.78786
1680262361362453300,-0.000873406,-0.0272322,7.38946e-05,-1.15554,0.394356,-9.77199
1680262361370853100,-0.000575077,-0.0256187,0.000476156,-1.15403,0.328519,-9.78729
1680262361379442900,-0.00124319,-0.0264807,-0.000439535,-1.22178,0.331672,-9.7588
1680262361387911900,0.00151105,-0.0237984,4.88414e-05,-1.26816,0.364121,-9.81141
1680262361402023700,0.000303918,-0.0255039,-0.000127771,-1.38147,0.349789,-9.73815
1680262361410694800,0.000820278,-0.0148588,0.0012061,-0.892662,0.353794,-9.76572
1680262361420123000,0.00189622,-0.0381556,9.24892e-05,-2.25099,0.298629,-8.94246
1680262361428868900,0.00183104,-0.0226309,0.000543966,-1.42656,0.395739,-10.7643
1680262361437164800,-0.00132643,-0.0267872,-0.000394651,-1.69227,0.371076,-9.70027
1680262361445527100,0.00143251,-0.021636,-0.000856507,-1.57722,0.378821,-9.91386
1680262361453976900,0.00251042,-0.0242691,-0.000346967,-1.71706,0.392217,-9.78583
1680262361462221800,0.00349964,-0.0205586,0.00195722,-1.60393,0.372397,-9.86824
1680262361470588400,0.00500485,-0.0201806,0.000202244,-1.70059,0.374523,-9.77598
1680262361478904100,0.00517328,-0.0218927,0.000276556,-1.67282,0.426409,-9.77948
1680262361487346000,0.00450042,-0.0190224,0.000146922,-1.71738,0.371414,-9.74595
1680262361495673500,0.00367452,-0.0174376,0.0010973,-1.7288,0.337214,-9.86148
1680262361503973400,0.00646259,-0.0197051,-0.00155913,-1.78279,0.383113,-9.74934
1680262361512487200,0.00389392,-0.0165755,0.00164406,-1.73582,0.359859,-9.77578
1680262361520739000,0.00387096,-0.0191115,0.000801697,-1.78831,0.399303,-9.7467
1680262361529007500,0.0062353,-0.0174921,0.000116196,-1.81473,0.354039,-9.8103
1680262361537394200,0.00686293,-0.0180061,-0.000662909,-1.78251,0.384675,-9.83262
1680262361545702100,0.0051973,-0.0173993,0.000555435,-1.78958,0.345485,-9.75625
1680262361554055600,0.0061096,-0.0161211,0.0001128,-1.85862,0.361015,-9.73101
1680262361562360100,0.00627519,-0.0174228,0.000859302,-1.78077,0.354797,-9.828
1680262361570801700,0.0061402,-0.0159707,0.000542887,-1.7908,0.332096,-9.84617
1680262361579287100,0.0070762,-0.0161538,0.00065225,-1.78347,0.356654,-9.78189
1680262361588147000,0.00515199,-0.0151001,0.00153536,-1.83994,0.390601,-9.83862
1680262361601629300,0.0043581,-0.0134309,0.000409111,-1.69984,0.298578,-9.70042
1680262361610140400,0.00514976,-0.00931969,0.00124033,-1.27841,0.321487,-9.73848
1680262361619387000,0.00898417,-0.0234005,-0.00143856,-2.63476,0.258594,-9.06679
1680262361627635000,0.00494187,-0.0156078,0.00166123,-1.69347,0.376803,-10.6588
1680262361636847300,0.00122497,-0.012028,-0.00076907,-1.89236,0.269408,-9.54792
1680262361645120100,-0.000577494,-0.0100452,0.000464129,-1.58957,0.282525,-9.87524
1680262361653945400,-0.00129471,-0.0098623,0.00112865,-1.8866,0.298966,-9.67393
1680262361662297300,-0.00362393,-0.0080759,0.000678233,-1.64609,0.33969,-9.8523
1680262361670679700,-0.00399583,-0.00727554,-0.000280765,-1.80921,0.266679,-9.62295
1680262361678954600,-0.000189271,-0.00501151,0.000940026,-1.66346,0.317117,-9.741
1680262361687363200,8.07905e-05,-0.0023458,0.000221354,-1.69827,0.365188,-9.70476
1680262361695711300,0.00241944,-0.00197874,0.000581635,-1.64222,0.349484,-9.72154
1680262361704338900,0.000413576,-0.000732275,-0.00041272,-1.68332,0.346651,-9.67526
1680262361712683300,0.0014599,-0.000578682,9.21184e-05,-1.5721,0.358865,-9.722
1680262361721006200,0.00716571,0.0018566,0.00185374,-1.66358,0.424117,-9.68401
1680262361735081200,0.00267536,0.00245156,-0.000854782,-1.66087,0.347327,-9.77244
1680262361743575100,0.0022351,0.00186342,0.000792236,-1.01475,0.366511,-9.76733
1680262361752848800,0.00665593,0.00642715,-0.00102654,-2.44581,0.235103,-8.83191
1680262361761244600,0.00327442,0.00230539,-0.0012543,-1.48975,0.371431,-10.8066
1680262361770873000,0.00569697,0.00367402,-0.000281925,-1.71232,0.341194,-9.69139
1680262361779955600,0.00250717,0.00292148,0.000500899,-1.39483,0.370069,-9.81271
1680262361788544500,0.00583089,0.00274604,7.07226e-05,-1.66313,0.371944,-9.63406
1680262361801941500,0.00297841,0.00372964,0.00111031,-1.43929,0.340571,-9.86928
1680262361810581200,0.00227701,0.00358827,0.000899705,-1.09217,0.31238,-9.73128
1680262361819945500,0.0064746,0.00702915,-0.00120266,-2.21432,0.221761,-9.06567
1680262361828195000,0.00179114,0.00431099,0.00011185,-1.36328,0.347101,-10.6141
1680262361837204200,0.0052069,0.00712916,0.000765147,-1.65585,0.354883,-9.69769
1680262361845742800,0.00630023,0.00402189,-5.8801e-05,-1.35445,0.397337,-9.93347
1680262361854230700,0.0062526,0.00339335,-0.000584427,-1.49496,0.358821,-9.69402
1680262361862562300,0.00403919,0.0034545,0.000977061,-1.39452,0.302072,-9.82252
1680262361871277500,0.00275155,0.00486794,0.000275932,-1.43838,0.31658,-9.81474
1680262361880842400,0.00399336,0.00538262,-0.000927355,-1.40194,0.301671,-9.80898
1680262361889234100,0.00291323,0.00296442,-0.00122995,-1.14957,0.34151,-9.75743
1680262361901660400,0.00451018,0.00455163,-0.000854898,-1.56182,0.331146,-9.62371
1680262361910415000,0.00175091,0.00389422,-0.00125971,-0.98431,0.296064,-9.94881
1680262361919745400,0.00426079,0.00704219,0.00168548,-1.83202,0.359234,-9.1591
1680262361928204000,0.00285406,0.00332968,0.000167805,-1.20062,0.369497,-10.4665
1680262361937320900,0.00325937,0.00490783,0.000786973,-1.43557,0.287901,-9.71857
1680262361945737400,0.00415674,0.00327732,-3.59044e-05,-1.24428,0.314131,-9.91374
1680262361954175200,0.00269954,0.00409463,0.000155352,-1.37528,0.327609,-9.77084
1680262361962460600,0.00290158,0.00259091,0.000636335,-1.30184,0.348318,-9.84262
1680262361970835700,0.00368881,0.00556076,-0.00124819,-1.24996,0.298831,-9.73693
1680262361979368200,0.00453998,0.00498482,0.0019326,-1.23624,0.359009,-9.79964
1680262361988322100,0.00222457,0.00301688,-0.000932733,-1.24625,0.320372,-9.79835
1680262362001859100,0.0037456,0.0021779,-0.000591637,-1.12089,0.339451,-9.7923
1680262362010385700,0.00217221,0.00270346,-0.00143241,-0.863631,0.298141,-9.6997
1680262362019597500,0.00782596,0.00579699,-4.68405e-05,-1.81998,0.338695,-9.10873
1680262362027836200,0.00346288,0.00292424,-0.000469743,-1.07005,0.367534,-10.7274
1680262362037063000,0.00401952,0.00247058,0.000997608,-1.25651,0.358409,-9.61149
1680262362045426300,0.00292851,0.00288818,3.396e-05,-1.03891,0.326459,-9.94819
1680262362054179300,0.0026711,0.00401213,-0.000956507,-1.2544,0.303725,-9.64214
1680262362062789600,0.0013099,0.0033346,0.00131155,-1.08354,0.295311,-9.84334
1680262362070851500,0.00421817,0.00367914,0.000406527,-1.14449,0.367319,-9.70876
1680262362079265300,0.00224096,0.00307754,0.00124272,-4.05317,0.321011,-9.87639
1680262362087671400,0.00216344,0.00226941,-0.00160692,-2.55108,0.266475,-9.75434
1680262362095983300,0.00319987,0.00255725,0.00257155,-3.57799,0.335318,-9.78269
1680262362104268300,0.00168662,0.00266116,0.00283366,-2.04274,0.270935,-9.73756
1680262362112791900,0.000483521,0.00205769,0.00581368,-2.99842,0.340595,-9.8165
1680262362121007400,0.000803732,0.002426,0.00496321,-1.76923,0.317386,-9.79311
1680262362129530400,0.00257073,0.00149358,0.00421745,-2.84127,0.290096,-9.81887
1680262362137622000,0.000524123,0.00082507,0.00143729,-1.88453,0.281954,-9.79303
1680262362151679700,0.00044377,0.0025965,0.0021685,-2.3358,0.31042,-9.76107
1680262362160220700,0.00108901,0.000554113,0.000481229,-1.02535,0.319118,-9.78961
1680262362169735300,0.00508603,0.0024311,0.00116306,-3.07412,0.277155,-8.94881
1680262362178148100,0.00083306,0.00217737,-0.00244611,1.63779,0.432618,-10.7306
1680262362187629900,0.00251269,0.00313629,-0.00155052,-2.14648,0.305428,-9.67838
1680262362196036900,0.00201597,0.00133494,0.00196476,-0.699769,0.349781,-9.944
1680262362204456800,0.00371387,0.00311936,-0.0285045,0.757472,0.291367,-9.62966
1680262362218564500,0.00136884,0.00181351,0.0135919,2.70945,0.403589,-10.0178
1680262362226991500,0.000637658,0.000249163,-0.0131057,0.648009,0.423853,-9.77599
1680262362236304400,0.00404559,0.00399858,0.0828721,-0.818747,0.585207,-8.78696
1680262362244544300,0.0052999,0.00140114,0.00098016,0.28374,0.8163,-10.9305
1680262362253845200,0.00107639,0.00132515,0.0468885,0.837264,0.849326,-9.58912
1680262362262100600,0.00456656,0.00182914,0.0198253,2.04784,1.00277,-9.91105
1680262362270716300,0.00261817,0.00169815,0.0713209,5.32911,1.2366,-9.66344
1680262362279280600,0.000660447,0.000863581,0.0537561,4.71856,1.02983,-9.92149
1680262362287355400,0.00125498,0.00211971,0.0709696,4.66926,1.01974,-9.73967
1680262362295719500,0.00163532,0.0021071,0.0782142,3.08319,1.20372,-9.79223
1680262362304100600,0.0047326,0.00186866,0.0890982,4.40321,1.09874,-9.75725
1680262362312407700,0.00275993,0.00168197,0.104177,3.73799,1.39435,-9.7423
1680262362320735300,0.0018727,0.00131882,0.119119,4.82328,1.31658,-9.78257
1680262362329079600,0.00462768,0.00237943,0.136702,3.96122,1.51094,-9.77654
1680262362337424200,0.00512282,0.00435298,0.150281,5.13483,1.42022,-9.76321
1680262362345731300,0.00245287,0.00224788,0.170962,4.27469,1.62194,-9.79636
1680262362354087700,0.0022377,0.00150733,0.186676,4.52744,1.60317,-9.83891
1680262362362398300,0.00351304,0.00266683,0.208662,4.08301,1.7428,-9.74093
1680262362370850300,0.00206799,0.00100993,0.227258,4.11818,1.82186,-9.82237
1680262362379101600,0.0030783,0.00314605,0.249748,3.89313,1.81264,-9.73544
1680262362387553800,0.00347166,0.00437196,0.26777,3.83319,1.91979,-9.82381
1680262362399141000,0.00241311,0.00346241,0.290887,3.61729,1.92557,-9.80994
1680262362407160300,0.00262658,0.00228796,0.235951,2.58312,1.61198,-9.76577
1680262362418066900,0.00437916,0.00415061,0.398222,4.69337,0.716711,-9.40204
1680262362426322800,0.00123442,0.00565393,0.241545,2.77936,0.0798285,-10.1123
1680262362435293700,0.00803436,0.00590578,0.366086,4.35072,-0.815892,-9.43256
1680262362443710400,0.00279848,0.00345327,0.241974,2.73365,-0.624513,-10.1683
1680262362452378000,0.00588443,0.00538107,0.251998,2.82755,-1.13661,-9.68761
1680262362460618800,0.00200443,0.00574855,0.199215,2.14246,-1.10898,-9.92827
1680262362469252200,0.00295008,0.0054097,0.186053,1.97793,-1.46973,-9.81229
1680262362477520100,0.00162044,0.00472789,0.143687,1.43649,-1.41921,-9.84617
1680262362486199900,0.00238799,0.00825389,0.117225,0.510691,-1.70458,-9.78028
1680262362494500400,-0.000296406,0.00590277,0.077234,0.302295,-1.72551,-9.85511
1680262362503268200,-0.000457057,0.00791154,0.0505846,0.182704,-1.5875,-9.72032
1680262362511525900,0.00277031,0.00737129,0.0271804,0.0362013,-0.643065,-9.92554
1680262362520190900,0.00182073,0.00634982,0.0182268,-0.0404783,-0.229756,-9.72076
1680262362528472300,0.00126719,0.00490413,0.00931881,-0.225976,0.0802137,-9.88736
1680262362536835400,0.00216148,0.00620708,0.00481369,-0.296538,0.171153,-9.85565
1680262362545130700,0.00280355,0.00401653,0.00191198,-0.393669,0.264261,-9.81126
1680262362553576600,0.00439787,0.00505104,0.000830247,-0.48078,0.297518,-9.86576
1680262362561874400,0.00374141,0.00372843,0.00128706,-0.552576,0.303986,-9.7984
1680262362570271300,0.00486288,0.0055123,0.00158984,-0.627409,0.288372,-9.78773
1680262362578500600,0.00485498,0.00482467,0.00202928,-0.749246,0.37902,-9.7644
1680262362587140100,0.00178858,0.00429089,0.00149406,-0.830486,0.318737,-9.79509
1680262362595495400,0.00284734,0.00509999,0.00121373,-0.839932,0.315197,-9.79724
1680262362603769300,0.00302968,0.00317918,-0.000565885,-0.927793,0.322659,-9.80388
1680262362612114400,0.00648155,0.00361422,-0.00116199,-0.980842,0.322939,-9.89062
1680262362620447000,0.00330891,0.0038914,-0.000441379,-0.998026,0.292887,-9.76474
1680262362628789200,0.00514381,0.00159711,-0.000186203,-1.04913,0.292915,-9.81479
1680262362637099800,0.00326297,0.000864351,-0.000107895,-1.05092,0.363885,-9.77613
1680262362645399900,0.00310882,0.00307913,-0.000113399,-1.09866,0.344387,-9.86728
1680262362653781800,0.00487865,0.00408072,-0.00141216,-1.19166,0.270225,-9.81982
1680262362662078500,0.00612923,0.00324707,-7.89293e-06,-1.1625,0.33969,-9.84922
1680262362670473800,0.00383724,0.00165731,0.000265818,-1.19063,0.304656,-9.81538
1680262362678718300,0.00336249,0.00240553,0.00221131,-1.25116,0.311776,-9.77877
1680262362687144000,0.00505931,0.00265604,-3.14257e-05,-1.30835,0.305578,-9.82115
1680262362695411500,0.00451214,0.00301264,-0.00111791,-1.23236,0.274835,-9.80594
1680262362703834900,0.00277969,0.00377504,0.00140688,-1.27367,0.2945,-9.78953
1680262362712083700,0.00471655,0.00349493,0.000110457,-1.31632,0.296323,-9.80803
1680262362720469100,0.00554905,0.00479348,0.000328423,-1.33865,0.303123,-9.80649
1680262362728751400,0.00476395,0.00369305,0.00116319,-1.35024,0.334364,-9.85336
1680262362737143500,0.00523412,0.00210586,0.00186485,-1.33708,0.294873,-9.8008
1680262362745460000,0.00487815,0.00270412,-9.11433e-05,-1.32821,0.341049,-9.78279
1680262362753835300,0.00380887,0.00282728,0.00138056,-1.36813,0.321572,-9.79473
1680262362762119700,0.0041954,0.00232304,0.000328192,-1.39519,0.320204,-9.77981
1680262362770424700,0.00402951,0.00307894,0.000799482,-1.3988,0.347496,-9.78348
1680262362778734800,0.00610653,0.00235085,0.000473735,-1.38878,0.297519,-9.81498
1680262362787113100,0.00474047,0.00412709,0.000785177,-1.41425,0.279072,-9.80669
1680262362795538200,0.00534991,0.00206668,-0.000394382,-1.39189,0.340271,-9.80495
1680262362804080600,0.00393635,0.0042906,0.000844191,-1.4059,0.285071,-9.84439
1680262362812304400,0.000198908,0.00292152,-0.00110124,-1.35438,0.342531,-9.82407
1680262362820713200,0.00288878,0.00419197,0.00235198,-1.44665,0.318512,-9.75505
1680262362828929900,0.00413749,0.00381446,-0.000521561,-1.42354,0.272365,-9.82856
1680262362837286100,0.00182509,0.000719709,-0.000355257,-1.39727,0.345978,-9.7722
1680262362845600300,0.00375049,0.001316,0.000777944,-1.35563,0.288427,-9.79938
1680262362854025800,0.00213123,0.00260039,0.000720812,-1.33601,0.299748,-9.82973
1680262362862549500,0.00141399,0.00318692,0.000690665,-1.34702,0.291858,-9.83162
1680262362870691400,0.00318733,0.00330932,0.00123181,-1.40225,0.278182,-9.77295
1680262362879003500,0.0039109,0.0037175,0.00114412,-1.39982,0.336594,-9.74052
1680262362887386100,0.00157408,0.00366186,0.00126659,-1.37384,0.328965,-9.80188
1680262362895754200,0.00221707,0.00431394,-0.000290764,-1.38558,0.302675,-9.77795
1680262362904069200,0.00340242,0.00266204,-0.00084038,-1.31411,0.305354,-9.81789
1680262362912387800,0.0040732,0.00280027,0.000260699,-1.32906,0.333581,-9.75329
1680262362920682400,0.00238048,0.000789832,0.00199111,-1.35195,0.285864,-9.7943
1680262362928999400,0.00256844,0.00275501,0.000331441,-1.33085,0.305272,-9.79491
1680262362937354100,0.00418676,0.00275291,0.000831914,-1.3482,0.328772,-9.78655
1680262362945695100,0.00142997,0.000741562,-0.00122675,-1.31099,0.290104,-9.78183
1680262362954083200,0.00151413,0.0033928,0.000171999,-1.31217,0.334647,-9.80617
1680262362962483700,0.00180483,0.00264088,0.000656064,-1.30185,0.297907,-9.8092
1680262362970683700,0.00205826,0.00193441,0.0014045,-1.23628,0.255575,-9.77313
1680262362979011500,0.00249162,0.00229811,-7.4982e-05,-1.29316,0.328781,-9.8283
1680262362987500100,0.00138548,0.00213806,0.000188208,-1.25616,0.316524,-9.71185
1680262362995795300,0.00438277,0.00282447,0.000923907,-1.21963,0.271137,-9.75524
1680262363004804800,-0.000124211,0.00300483,0.000291379,-1.22588,0.291703,-9.83079
1680262363013166900,0.00200522,9.05041e-05,-0.000365615,-1.15053,0.312324,-9.76876
1680262363021319200,0.0039765,0.00235511,0.00153593,-1.30677,0.314322,-9.744
1680262363034688800,0.00110812,0.00183651,0.00139657,-1.20822,0.307661,-9.87054
1680262363042903800,0.000992981,0.0017262,0.000571916,-0.786892,0.302393,-9.78936
1680262363051941500,0.00371212,0.00120234,0.000208962,-1.83475,0.19476,-8.93641
1680262363061056900,0.00234398,0.00194419,0.00134665,-1.06572,0.345091,-10.6443
1680262363070358100,0.00316625,0.0012084,0.000207632,-1.11251,0.319566,-9.714
1680262363078603100,0.00235177,0.00117902,0.000103353,-1.12042,0.306003,-9.7947
1680262363087156700,0.0027514,0.00108419,-0.00100402,-1.25175,0.303909,-9.79655
1680262363095511900,0.0015248,0.00235609,0.0010592,-1.12256,0.310623,-9.89462
1680262363103817900,0.00232685,0.00205358,0.000797628,-1.11391,0.285654,-9.80867
1680262363112352500,0.000944616,0.00148497,-0.00018775,-1.09724,0.226663,-9.78622
1680262363120819900,0.00110392,-0.000978977,-0.00154018,-1.12628,0.291719,-9.74598
1680262363129172800,0.00195174,0.000280112,0.00594475,-1.0077,0.696673,-9.8333
1680262363137607600,0.0036241,0.00207968,0.0139566,-1.10567,0.799107,-9.71977
1680262363145817700,0.00319459,0.00395031,0.0209392,-1.07785,0.790338,-9.84208
1680262363154170100,0.00164344,0.00209108,0.0242796,-3.9251,0.699232,-9.7883
1680262363162546400,0.001152,0.000961434,0.0321979,-2.57821,0.708328,-9.79366
1680262363170806400,0.00196201,0.00100322,0.0454663,-3.53247,0.841993,-9.81722
1680262363179083100,0.00195067,0.00345144,0.0527571,-2.1673,0.541791,-9.81541
1680262363187523500,0.00088031,0.00197649,0.0632918,-2.86717,0.798187,-9.82553
1680262363195796900,0.00178662,0.00209957,0.0591317,-1.73597,0.340144,-9.77462
1680262363204208300,0.000517324,0.00154617,0.0652323,-2.92621,0.83268,-9.84417
1680262363212481900,0.00174764,0.00297806,0.0624922,-1.90173,0.235366,-9.77413
1680262363220826200,0.000677897,0.000715302,0.0722625,-2.45836,0.946745,-9.78971
1680262363229171400,0.000586308,0.00177621,0.0696086,-1.51989,0.149371,-9.79145
1680262363237476000,0.00159008,0.00241257,0.0754893,-1.88253,0.973617,-9.79301
1680262363245834400,0.00246641,0.00157344,0.079604,-1.04605,0.125019,-9.79471
1680262363254152600,0.000920285,0.00178555,0.0969999,-0.465337,1.18804,-9.80347
1680262363262517400,0.000974732,0.00298978,0.0917163,0.153632,0.18309,-9.7781
1680262363270820200,0.00270795,0.00161145,0.09451,0.164888,1.20723,-9.85585
1680262363279142200,0.000770077,0.000264496,0.107929,0.773127,0.498399,-9.72757
1680262363287520700,-0.000184566,0.00191249,0.138457,0.674184,0.991608,-9.8642
1680262363295787100,0.000994928,0.00114665,0.110674,2.52861,1.19103,-9.82138
1680262363304157000,-0.000613391,0.000288332,0.152847,1.17091,0.657732,-9.7236
1680262363312476900,-0.00267238,0.000581133,0.126529,0.553892,0.937894,-9.77716
1680262363320801500,0.000212473,0.000785465,0.172464,0.556739,0.983,-9.81905
1680262363329160400,-0.00162226,-0.0019576,0.144129,2.54958,0.876263,-9.74469
1680262363337473300,-0.0036434,-0.00275632,0.178353,1.80099,0.50108,-9.78393
1680262363346009300,-0.00156398,-0.00296594,0.15509,2.20285,1.06875,-9.73994
1680262363354161000,-0.00253901,-0.00215534,0.194824,2.09065,0.835193,-9.80958
1680262363362479400,-0.00301177,-0.002955,0.166337,3.37556,0.827417,-9.79643
1680262363370833900,-0.00330341,-0.00375219,0.19942,3.57613,0.938939,-9.72701
1680262363379753400,-0.00405644,-0.00388513,0.186055,3.2971,1.1292,-9.78944
1680262363387492100,-0.00358372,-0.00252177,0.220864,3.71116,0.986926,-9.82239
1680262363396851500,-0.00543261,-0.00340628,0.203368,3.80266,0.427897,-9.77021
1680262363404874100,-0.00511338,-0.00261963,0.20068,3.84498,0.128197,-9.79681
1680262363418200700,-0.00470634,-0.00522247,0.208352,3.93366,-0.279386,-9.64372
1680262363426385300,-0.00318066,-0.00290353,0.122461,2.19919,-0.0810693,-9.83935
1680262363434854900,-0.0094649,-0.00701157,0.220284,2.31178,-1.70699,-8.97795
1680262363443099700,-0.00883541,-0.00363522,0.147262,2.89557,-0.574916,-10.7681
1680262363451561700,-0.00808669,-0.00325485,0.117804,2.65029,-0.713566,-9.72912
1680262363459759700,-0.00627131,-0.00387239,0.104313,0.852484,-0.970922,-9.78266
1680262363468152400,0.000763019,-0.00456587,0.0836,0.787263,-0.999419,-9.71227
1680262363476402800,-0.00357365,-0.00559534,0.0595313,0.664202,-1.1138,-9.73426
1680262363484842600,-0.000989619,-0.00633819,0.0354082,0.506487,-1.14141,-9.73054
1680262363493078000,-0.000110012,-0.00635314,0.0185784,0.369662,-0.664975,-9.7225
1680262363501525300,0.00431618,-0.00690908,0.0101109,0.287329,-0.137044,-9.82674
1680262363509751700,0.00217083,-0.0092019,0.00313045,0.209345,0.093635,-9.81134
1680262363518160500,0.000828008,-0.00671427,0.00222199,0.10177,0.230511,-9.75744
1680262363526413100,0.00217112,-0.00885414,-0.000118647,-0.0076088,0.28356,-9.78488
1680262363534813500,0.00174286,-0.00786433,0.00151549,-0.0557371,0.346243,-9.77512
1680262363543076100,0.00305912,-0.00788719,0.00138191,-0.168727,0.315856,-9.72135
1680262363551497300,0.00373703,-0.00935115,0.000546613,-0.216704,0.294,-9.82875
1680262363559762400,0.00321204,-0.00952031,0.00144137,-0.27457,0.331463,-9.77158
1680262363568222300,0.00328509,-0.00926932,-0.000625907,-0.366894,0.34028,-9.76538
1680262363576444700,0.00309486,-0.00995282,-0.000195166,-0.392165,0.340091,-9.77559
1680262363584831400,0.0042167,-0.00999825,0.000659313,-0.487785,0.364764,-9.8391
1680262363593120900,0.00129961,-0.0105907,-0.00129225,-0.533182,0.286293,-9.77904
1680262363601485100,0.00299367,-0.01102,-0.000173499,-0.619717,0.291899,-9.79918
1680262363609833300,0.00396464,-0.00953174,-0.00220066,-0.580873,0.305248,-9.84819
1680262363618251000,0.00317147,-0.00978675,-0.000275023,-0.626035,0.325573,-9.89511
1680262363626454600,0.00119259,-0.0133572,0.00073195,-0.723439,0.288134,-9.76499
1680262363635146100,0.000582432,-0.0107209,0.000995888,-0.756429,0.249762,-9.77446
1680262363643402500,0.00197384,-0.00906265,-0.00175032,-0.765156,0.273208,-9.82355
1680262363651772400,0.00290488,-0.00995405,-0.00146774,-0.814547,0.315444,-9.85132
1680262363660017500,0.00271427,-0.0110822,-0.000561676,-0.791966,0.288003,-9.86238
1680262363668418200,0.000893682,-0.0116018,-0.000227757,-0.77511,0.317981,-9.80149
1680262363676701300,-1.78992e-05,-0.0107802,-0.00143197,-0.859145,0.243846,-9.86277
1680262363685104600,0.000978025,-0.0113341,0.000563416,-0.876579,0.32043,-9.73601
1680262363693389500,0.0014244,-0.0103174,0.000643948,-0.877313,0.321905,-9.79019
1680262363701801000,-0.00080227,-0.0110168,-8.09241e-06,-0.914051,0.325677,-9.8467
1680262363710051100,-0.00096006,-0.0130695,-0.0020068,-0.909743,0.292877,-9.78719
1680262363718436700,0.000129862,-0.011911,-0.000286984,-0.909552,0.309001,-9.82953
1680262363726686500,0.00187748,-0.0117017,0.00120697,-0.973748,0.318934,-9.81571
1680262363735108400,-0.000306725,-0.0108506,-1.1415e-05,-0.983618,0.308014,-9.77467
1680262363743374700,-0.00186894,-0.0128921,0.00183227,-0.995554,0.2724,-9.847
1680262363751772300,-0.000767851,-0.00881707,-0.000278278,-0.970553,0.331775,-9.78168
1680262363760037100,0.00201094,-0.0098746,-0.000516856,-0.976195,0.347797,-9.82056
1680262363768499100,-2.56659e-05,-0.0108126,0.000575738,-1.00305,0.291361,-9.74632
1680262363776748000,-0.000640056,-0.00893194,-0.00197001,-0.96835,0.270948,-9.8578
1680262363785222700,0.000203865,-0.00943729,-4.32799e-05,-0.964176,0.329398,-9.79894
1680262363793507100,-5.19472e-05,-0.0101955,-0.0018517,-1.00687,0.308123,-9.86299
1680262363801857700,0.00267559,-0.0096226,-0.00152377,-0.998011,0.297034,-9.79615
1680262363810027900,0.000637912,-0.00948138,0.000109821,-3.52062,0.273693,-9.82643
1680262363818484700,0.00257546,-0.00797279,0.000204603,-2.39681,0.348274,-9.81904
1680262363826851500,-0.00043849,-0.00982302,-5.92485e-05,-3.16115,0.25094,-9.77495
1680262363835172200,-0.00014269,-0.00825822,-0.00186738,-1.7307,0.299872,-9.79722
1680262363843372200,-0.000313329,-0.0088594,6.7082e-05,-2.70828,0.310932,-9.75408
1680262363851841200,-0.00118375,-0.00796668,-0.000884973,-1.39315,0.270984,-9.87435
1680262363860163300,-0.000218452,-0.00713518,-0.00136883,-2.21896,0.289968,-9.78
1680262363868795400,-0.00119496,-0.00672093,-0.000741711,-1.09266,0.296026,-9.84449
1680262363877037900,-0.00196948,-0.00761274,-0.00133748,-1.60278,0.282728,-9.7249
1680262363885554200,-0.000602564,-0.00696918,-0.00166926,-0.951913,0.249923,-9.78852
1680262363893811100,-0.000351639,-0.00897748,-1.23222e-05,-1.07145,0.310385,-9.79177
1680262363903119700,0.00113566,-0.00671676,-0.000465153,-0.413434,0.319646,-9.83062
1680262363911292700,0.00100968,-0.0062082,0.00115166,-0.577259,0.295495,-9.78092
1680262363920133500,-8.81493e-05,-0.00680131,-0.00171207,-0.347597,0.266066,-9.74389
1680262363928356900,0.00106855,-0.00703687,0.00045991,0.00458168,0.311014,-9.78956
1680262363936767300,0.000686835,-0.00694686,-0.000816512,0.329121,0.363248,-9.88402
1680262363945022200,-0.000872955,-0.00766095,0.00101964,0.549801,0.284323,-9.86676
1680262363953524100,0.000397651,-0.0103457,-0.000885639,1.2098,0.313649,-9.78486
1680262363961831100,9.08993e-05,-0.00955492,-0.0028655,1.21156,0.272205,-9.82342
1680262363970408100,-0.000226698,-0.00894375,-0.000593461,1.89996,0.340846,-9.85136
1680262363978670700,0.00134947,-0.00696357,0.000959507,1.69602,0.273881,-9.75327
1680262363987365900,-0.00162121,-0.00977844,-0.000955229,2.35887,0.305146,-9.75479
1680262363995772200,-0.00112459,-0.00965205,-0.000142591,2.41479,0.327183,-9.85663
1680262364004087200,0.00032317,-0.00896454,-0.000221401,3.27199,0.329199,-9.77846
1680262364012259000,0.00168627,-0.00922127,0.00329195,2.93442,0.677643,-9.81105
1680262364020520300,0.000649256,-0.00981344,0.0126831,4.08808,0.892453,-9.77602
1680262364028969500,0.000888871,-0.0107955,0.021874,3.35867,0.995006,-9.75749
1680262364037278400,-0.00129461,-0.00996272,0.0342728,4.56234,1.07315,-9.83076
1680262364045541900,-0.0012424,-0.0119276,0.0472417,3.92286,1.16217,-9.75024
1680262364053920600,-0.00154949,-0.0132022,0.0603363,4.49606,1.27426,-9.79891
1680262364062278000,0.000341131,-0.0128308,0.0755024,4.03037,1.33296,-9.80687
1680262364070633600,2.91615e-05,-0.0135826,0.089535,4.06735,1.34577,-9.81966
1680262364078906600,0.000352193,-0.0155004,0.10775,3.90036,1.40006,-9.79358
1680262364087288100,-0.00031487,-0.0132696,0.122318,3.88629,1.50323,-9.76008
1680262364095664900,-0.00179142,-0.012967,0.139361,3.75039,1.47896,-9.82837
1680262364103906500,-9.15388e-05,-0.0146227,0.158476,3.69369,1.57647,-9.73981
1680262364112226700,0.00128465,-0.0156968,0.176978,3.59254,1.64357,-9.81181
1680262364120625800,0.00103124,-0.0155195,0.198314,3.55542,1.72573,-9.79407
1680262364129143400,-0.000521885,-0.0141247,0.216183,3.48804,1.77265,-9.73462
1680262364137322800,0.00118224,-0.0161225,0.236277,3.44587,1.81651,-9.83477
1680262364145583100,0.00193587,-0.015578,0.257282,3.38639,1.90244,-9.84503
1680262364153972500,-0.00191718,-0.0157984,0.260072,3.57703,0.680318,-9.77513
1680262364162272000,0.000845784,-0.0158674,0.252026,3.62174,-0.121497,-9.76312
1680262364170574800,0.00161065,-0.0192049,0.234279,3.52622,-0.657476,-9.79988
1680262364178835300,0.000574783,-0.0170778,0.210579,3.34798,-1.00433,-9.83335
1680262364187301800,0.0018864,-0.0178441,0.184846,3.15066,-1.23402,-9.83314
1680262364195501300,-9.25842e-05,-0.0181157,0.151441,2.83146,-1.49591,-9.7932
1680262364203903200,0.000589192,-0.0175056,0.118884,2.58786,-1.70502,-9.84876
1680262364212206900,0.000863996,-0.018102,0.0828881,2.21143,-1.91058,-9.74765
1680262364220540600,-0.00145225,-0.0180357,0.0537225,1.87944,-1.52772,-9.80346
1680262364228837900,3.57602e-05,-0.018574,0.0325339,1.52585,-0.760231,-9.82247
1680262364237312800,-0.00129497,-0.0196683,0.0206413,0.561876,-0.334108,-9.76583
1680262364245581900,-7.50998e-05,-0.0186009,0.0109921,0.4488,-0.0467177,-9.84301
1680262364253917200,0.00250783,-0.0200901,0.00867633,0.241019,0.145498,-9.78646
1680262364262226500,0.00206698,-0.0196677,0.0041174,0.0893576,0.22049,-9.80764
1680262364270533200,-0.00193228,-0.0196843,0.00231145,-0.0384322,0.23511,-9.83226
1680262364278861600,-0.000872317,-0.0186488,0.00194194,-0.214334,0.271809,-9.77784
1680262364287230300,0.000830417,-0.0182229,0.00250909,-0.333559,0.223237,-9.81488
1680262364295532100,-0.00150512,-0.0200499,0.000217211,-0.407078,0.277878,-9.88046
1680262364303867400,0.000894043,-0.0188937,-0.00069213,-0.598726,0.292462,-9.72358
1680262364312206400,-0.00114732,-0.0189567,0.00181594,-0.641761,0.282257,-9.73182
1680262364320543600,0.000121899,-0.0186946,0.000489809,-0.681139,0.358783,-9.77923
1680262364328843000,-0.00151307,-0.018923,-0.00208535,-0.811903,0.310886,-9.78703
1680262364337261300,0.00101887,-0.0202213,0.000794892,-0.931159,0.318697,-9.82058
1680262364345570400,0.0016721,-0.0185158,-0.00166931,-0.993764,0.350173,-9.80579
1680262364353876400,-0.00111744,-0.0187211,-0.00301938,-1.03969,0.283785,-9.82971
1680262364362176500,-0.00238419,-0.0182214,0.00134838,-1.12481,0.243647,-9.7552
1680262364370564600,-0.00475644,-0.0148578,-0.0014147,-1.12646,0.267794,-9.71113
1680262364378864000,-0.00446215,-0.0145455,0.000298862,-1.23187,0.250701,-9.80714
1680262364387185400,-0.00856522,-0.0145191,-0.000325672,-1.24716,0.290447,-9.68071
1680262364396313600,-0.00706772,-0.0128137,0.000127056,-1.32501,0.277176,-9.80746
1680262364403933200,-0.00725863,-0.0126994,0.0018702,-1.38398,0.286458,-9.76807
1680262364412206900,-0.00856314,-0.0111536,0.0020151,-1.40366,0.261318,-9.72026
1680262364420542000,-0.00967508,-0.0107749,0.000816026,-1.40374,0.295439,-9.76014
1680262364428852800,-0.00890242,-0.0123186,0.00130896,-1.49836,0.302672,-9.75944
1680262364437354800,-0.0117017,-0.0104698,0.00213472,-1.50138,0.284404,-9.83611
1680262364445638300,-0.0094238,-0.00651994,0.00221228,-1.5202,0.328076,-9.73362
1680262364453891000,-0.00954714,-0.00776803,0.000120943,-1.58174,0.329959,-9.81166
1680262364462198700,-0.00724121,-0.00695318,0.000969321,-1.52285,0.307554,-9.7486
1680262364470547500,-0.00810456,-0.00533974,0.00160156,-1.53425,0.351477,-9.70641
1680262364478913600,-0.00638304,-0.00387286,0.00162824,-1.64747,0.418255,-9.76137
1680262364487232700,-0.00549277,-0.00425041,0.000796329,-1.61066,0.40113,-9.70397
1680262364495533800,-0.00148768,-0.00161818,0.00105313,-1.63519,0.386151,-9.75079
1680262364503871700,-0.00245737,-0.00174642,-0.00239048,-1.63272,0.396419,-9.77486
1680262364512241300,-0.0018524,-0.000658577,0.000543091,-1.68591,0.390582,-9.75244
1680262364520551300,0.00189862,0.000883043,-0.00171771,-1.65769,0.399527,-9.81123
1680262364528853900,0.00118795,0.0016362,-0.00156188,-1.68741,0.36504,-9.82116
1680262364537222900,0.000526263,0.0027321,0.00167048,-1.66915,0.369177,-9.74756
1680262364545554500,0.00267644,0.00208416,0.0010404,-1.66014,0.34092,-9.87435
1680262364553876500,0.00181734,0.00435687,-0.000316201,-1.68583,0.3765,-9.78312
1680262364562203100,0.00314344,0.00174476,-0.000975839,-1.7011,0.298128,-9.79325
1680262364570544000,0.00334734,0.00453503,0.000397785,-1.71326,0.336638,-9.80547
1680262364578852100,0.00360501,0.00284191,-0.000383738,-1.66486,0.338427,-9.79155
1680262364587179600,0.0017715,0.00419649,-0.00021128,-1.70118,0.374996,-9.73673
1680262364595542700,0.00423576,0.00631447,0.000330728,-1.71942,0.353973,-9.83107
1680262364603890200,0.00562662,0.00473617,-0.00061895,-1.68435,0.294307,-9.78042
1680262364612192700,0.00541076,0.004576,0.000189216,-1.67223,0.329402,-9.81304
1680262364620555400,0.00587432,0.00363931,0.000826599,-1.65922,0.306625,-9.79222
1680262364628855700,0.00542753,0.0042193,0.000587008,-1.66505,0.300905,-9.80765
1680262364637298300,0.00585302,0.00425136,-0.000207306,-1.68165,0.335876,-9.76153
1680262364645627200,0.00620961,0.0066384,-0.000212418,-1.59031,0.344534,-9.79166
1680262364653922700,0.00226805,0.0060588,0.000407427,-1.62702,0.266084,-9.81648
1680262364662217000,0.00583687,0.00350361,0.00094705,-1.63623,0.33321,-9.75648
1680262364670562000,0.00382386,0.00402256,0.00038037,-1.6378,0.324612,-9.82624
1680262364679130700,0.0025514,0.0047634,-0.00182272,-1.60429,0.293737,-9.78242
1680262364687277700,0.00321801,0.00552234,0.00035549,-1.57543,0.305627,-9.84302
1680262364695529200,0.00283348,0.00312143,0.000119548,-4.38319,0.323183,-9.8529
1680262364703884600,0.00450706,0.00432214,0.00132646,-3.67604,0.308476,-9.74415
1680262364712195200,0.00401983,0.00382643,-0.000402211,-3.48771,0.299652,-9.82277
1680262364720578500,0.004805,0.00297248,0.00124388,-2.84664,0.317876,-9.7853
1680262364728928000,0.0048805,0.00387279,0.00159845,-3.04147,0.268252,-9.80204
1680262364737285800,0.00480998,0.0048012,-0.000691787,-1.91522,0.287153,-9.70757
1680262364745594000,0.0041664,0.00436387,0.00238971,-2.49091,0.297532,-9.84379
1680262364753939900,0.00277203,0.00207117,-0.000927984,-1.32572,0.298334,-9.80122
1680262364762292200,0.00478123,0.00364036,0.0017311,-1.98013,0.364346,-9.75859
1680262364770532900,0.00265082,0.00516637,-8.24817e-05,-0.779543,0.274644,-9.80563
1680262364778859500,0.00190336,0.00249628,0.00130035,-1.46591,0.286447,-9.76978
1680262364787255800,0.00549163,0.00210026,0.000656618,-0.283654,0.371092,-9.83405
1680262364795549400,0.00569462,0.00133467,0.00182545,-0.979671,0.310103,-9.80537
1680262364804013200,0.00380255,0.00184703,0.000347461,0.221964,0.280337,-9.78908
1680262364812240700,0.00408555,0.00392845,-0.000578875,-0.402714,0.301035,-9.79274
1680262364820542700,0.00394064,0.00262812,-0.000851372,0.761236,0.351064,-9.77715
1680262364828864800,0.00382357,0.00350211,0.000661672,0.19937,0.282063,-9.81315
1680262364837226200,0.00494489,0.00572279,0.000467857,1.31244,0.316247,-9.85706
1680262364845546800,0.00277124,0.00191173,0.00133774,0.790632,0.275334,-9.81609
1680262364853999600,0.00371975,0.00397945,-0.0003756,1.98992,0.353023,-9.79296
1680262364862321600,0.0023124,0.00547892,-0.00163321,1.52045,0.289728,-9.75373
1680262364870673400,0.0046056,0.00190418,0.000578162,2.75959,0.346026,-9.79959
1680262364878902100,0.0053353,0.00395572,0.000658282,2.21887,0.328337,-9.73453
1680262364887210800,0.00562592,0.00368509,0.000609979,3.3653,0.352296,-9.7844
1680262364895590300,0.00264179,0.00227466,-0.000907081,2.88697,0.293769,-9.80452
1680262364903878300,0.00354459,0.00408889,0.000777503,3.42133,0.300473,-9.8657
1680262364912216600,0.0037285,0.00366354,0.000598403,3.25227,0.292355,-9.77427
1680262364920657700,0.00478642,0.00283343,0.000754558,3.33654,0.299859,-9.73458
1680262364929358600,0.00443344,0.00469855,-0.00117303,3.35619,0.273704,-9.83438
1680262364937444500,0.00434596,0.00283128,-0.00127587,3.37465,0.284006,-9.7943
1680262364945549900,0.00347994,0.00328763,0.00777317,3.34776,0.838623,-9.79822
1680262364953881700,0.00475574,0.00549036,0.0172274,3.34012,1.09351,-9.80687
